Taken by Alex and Dennis 2/20/15

AccelX, AccelY, AccelZ, Roll, Pitch, Heading
0.000, 0.000, 0.000, 0.000, 0.000, 0.000
-3.138, 1.334, 10.238, 7.100, -16.906, 0.000
-2.432, 3.452, 9.375, 19.616, -13.682, 0.000
-2.236, 0.785, 10.748, 4.088, -11.721, 0.000
-1.961, 0.039, 11.219, 0.197, -9.916, 0.000
-2.314, 1.059, 10.120, 5.825, -12.813, 0.000
-0.981, 0.785, 11.101, 4.027, -5.036, 0.000
-1.098, 0.706, 10.395, 3.864, -6.018, 0.000
-0.353, 0.275, 10.356, 1.518, -1.952, 0.000
-1.451, 0.628, 9.218, 3.848, -8.927, 0.000
-0.745, 0.039, 10.238, 0.219, -4.164, 0.000
-0.902, -0.745, 10.395, -4.086, -4.948, 0.000
-0.510, 0.353, 10.787, 1.872, -2.705, 0.000
-2.471, 0.628, 10.120, 3.448, -13.697, 0.000
-4.982, 0.981, 8.434, 5.717, -30.402, 0.000
-4.903, 1.765, 9.022, 9.754, -28.074, 0.000
-5.374, 1.648, 8.081, 9.635, -33.090, 0.000
-5.609, 2.040, 7.963, 11.828, -34.310, 0.000
-5.374, 0.628, 8.708, 3.510, -31.613, 0.000
-4.903, 0.745, 8.865, 4.208, -28.861, 0.000
-2.511, -1.412, 12.709, -6.221, -11.107, 0.000
-3.217, -3.844, 6.747, -27.217, -22.501, 0.000
-1.255, -0.628, 10.238, -3.482, -6.977, 0.000
-0.235, -1.569, 11.180, -7.988, -1.194, 0.000
-1.530, -0.628, 7.218, -4.862, -11.923, 0.000
-0.588, 0.275, 9.767, 1.607, -3.446, 0.000
-2.040, 0.941, 12.082, 4.394, -9.555, 0.000
-3.766, -0.078, 12.121, -0.354, -17.259, 0.000
-4.393, -0.039, 13.376, -0.160, -18.182, 0.000
-3.373, 1.020, 12.945, 4.360, -14.564, 0.000
-2.432, -1.648, 9.375, -9.654, -14.332, 0.000
0.000, 0.000, 5.766, 0.000, 0.000, 0.000
-0.902, -2.079, 8.708, -13.358, -5.754, 0.000
0.157, 0.785, 10.317, 4.348, 0.869, 0.000
-1.569, -1.020, 12.474, -4.638, -7.146, 0.000
-0.902, 0.981, 8.708, 6.391, -5.878, 0.000
1.373, -0.588, 6.786, -4.858, 11.396, 0.000
1.216, -0.392, 11.454, -1.950, 6.057, 0.000
0.196, -1.255, 11.925, -6.008, 0.937, 0.000
1.334, 0.902, 8.630, 5.899, 8.738, 0.000
1.098, -1.216, 9.885, -6.971, 6.293, 0.000
1.334, -0.275, 11.729, -1.333, 6.486, 0.000
-0.471, -0.588, 9.924, -3.389, -2.711, 0.000
0.588, -1.098, 9.336, -6.697, 3.582, 0.000
0.157, -1.491, 11.925, -7.124, 0.748, 0.000
-1.804, -1.569, 11.023, -7.997, -9.206, 0.000
0.824, -2.079, 8.669, -13.428, 5.279, 0.000
0.275, -2.667, 11.140, -13.461, 1.373, 0.000
-2.079, -2.511, 12.121, -11.538, -9.534, 0.000
-0.510, -2.275, 8.708, -14.618, -3.243, 0.000
-0.078, -3.295, 10.317, -17.713, -0.415, 0.000
-3.099, -6.433, 12.474, -26.588, -12.451, 0.000
-1.648, -1.177, 8.787, -7.499, -10.528, 0.000
-0.039, -0.902, 9.336, -5.520, -0.240, 0.000
0.235, 0.118, 12.435, 0.542, 1.084, 0.000
-2.197, -0.588, 9.924, -3.313, -12.460, 0.000
-1.255, -1.059, 11.336, -5.305, -6.291, 0.000
0.235, -1.491, 10.277, -8.250, 1.298, 0.000
-1.059, 0.000, 10.866, 0.000, -5.567, 0.000
-1.569, -0.078, 11.533, -0.386, -7.748, 0.000
-0.824, -1.648, 11.297, -8.275, -4.127, 0.000
-1.530, 0.785, 11.376, 3.910, -7.641, 0.000
-2.511, 4.040, 10.238, 20.971, -12.849, 0.000
-1.844, 3.923, 9.297, 22.484, -10.354, 0.000
-3.217, 3.766, 10.003, 19.717, -16.749, 0.000
-3.844, 4.197, 8.355, 24.530, -22.349, 0.000
-3.334, 3.570, 10.042, 18.642, -17.372, 0.000
-2.354, 2.354, 9.571, 13.430, -13.430, 0.000
-1.294, 3.727, 9.571, 21.098, -7.183, 0.000
-0.706, 2.824, 9.807, 16.027, -3.958, 0.000
-2.079, 2.432, 9.767, 13.687, -11.670, 0.000
-0.706, 3.570, 9.414, 20.712, -4.011, 0.000
-2.314, 2.746, 10.081, 14.867, -12.490, 0.000
-2.157, 2.942, 9.140, 17.395, -12.664, 0.000
-2.393, 3.727, 9.885, 20.123, -12.762, 0.000
-1.373, 5.217, 8.669, 30.727, -7.727, 0.000
-1.294, 5.256, 9.022, 29.972, -7.067, 0.000
-1.177, 4.629, 9.728, 25.284, -6.234, 0.000
-2.275, 3.295, 10.905, 16.478, -11.294, 0.000
-2.942, 2.785, 8.041, 18.017, -19.071, 0.000
-0.941, 5.217, 8.394, 31.700, -5.441, 0.000
1.373, 5.884, 8.355, 34.796, 7.652, 0.000
2.236, 7.728, 13.572, 29.327, 8.147, 0.000
0.981, 7.806, 10.552, 36.375, 4.273, 0.000
0.902, 6.669, 6.590, 45.073, 5.497, 0.000
-4.707, 0.981, 10.709, 4.792, -23.640, 0.000
-7.649, 3.177, 12.553, 12.197, -30.572, 0.000
-2.471, -2.942, 7.139, -21.277, -17.747, 0.000
-0.981, 0.314, 6.315, 2.811, -8.816, 0.000
-4.668, 0.000, 11.180, 0.000, -22.663, 0.000
-2.628, -2.197, 13.337, -9.180, -11.003, 0.000
-8.159, -7.296, 16.083, -22.027, -24.797, 0.000
-3.138, -4.707, 10.042, -24.104, -15.799, 0.000
-1.294, -0.039, 6.629, -0.333, -11.049, 0.000
-1.451, 2.589, 10.983, 13.153, -7.329, 0.000
0.157, -0.235, 9.218, -1.462, 0.975, 0.000
-1.648, 0.667, 10.827, 3.485, -8.636, 0.000
8.002, 15.102, 20.006, 35.027, 17.706, 0.000
2.981, -0.392, 18.397, -1.206, 9.203, 0.000
-1.020, -2.236, 10.983, -11.459, -5.199, 0.000
-0.785, -2.432, 10.356, -13.180, -4.218, 0.000
-1.844, -1.530, 10.317, -8.305, -10.025, 0.000
-1.255, -2.157, 10.160, -11.901, -6.891, 0.000
-1.569, -1.765, 9.297, -10.604, -9.415, 0.000
-2.628, -2.354, 9.650, -13.242, -14.821, 0.000
2.864, 3.138, 8.787, 18.756, 17.062, 0.000
5.060, 3.020, 6.159, 20.754, 36.417, 0.000
0.118, 8.826, 6.119, 55.260, 0.628, 0.000
-0.196, 9.728, 6.943, 54.473, -0.940, 0.000
-1.569, 10.160, 2.157, 75.288, -8.591, 0.000
-0.353, 9.650, 2.707, 74.206, -2.017, 0.000
-0.471, 9.767, 2.824, 73.662, -2.651, 0.000
0.667, 9.061, 4.354, 64.075, 3.795, 0.000
1.451, 8.944, 4.786, 60.788, 8.143, 0.000
2.550, 7.924, 4.276, 57.860, 15.811, 0.000
4.668, 9.336, 6.041, 50.726, 22.772, 0.000
4.040, 8.983, 3.373, 59.632, 22.834, 0.000
5.923, 7.532, 2.667, 49.221, 36.551, 0.000
7.257, 7.414, 2.589, 43.897, 42.741, 0.000
3.766, 8.669, 2.354, 62.876, 22.744, 0.000
4.550, 9.532, 2.118, 62.231, 24.985, 0.000
2.746, 9.257, 2.118, 69.464, 16.127, 0.000
4.864, 7.375, 4.629, 47.682, 29.190, 0.000
6.865, 4.040, 6.276, 23.479, 42.604, 0.000
7.453, 2.550, 5.766, 15.140, 49.771, 0.000
7.178, 4.001, 6.159, 22.930, 44.346, 0.000
8.708, 6.747, 3.452, 35.763, 48.967, 0.000
7.924, 5.060, 0.667, 32.471, 57.213, 0.000
8.551, 5.688, 0.902, 33.483, 56.042, 0.000
8.355, 5.217, 0.667, 31.900, 57.810, 0.000
8.355, 5.099, 0.157, 31.392, 58.591, 0.000
8.081, 5.178, -0.235, 32.640, 122.678, 0.000
8.591, 5.139, -0.745, 30.792, 121.150, 0.000
7.767, 4.903, -1.216, 31.952, 123.041, 0.000
8.355, 5.923, -3.334, 33.362, 129.129, 0.000
7.610, 5.570, -2.785, 34.504, 129.295, 0.000
7.453, 5.178, -3.334, 32.382, 129.567, 0.000
7.571, 4.903, -3.099, 30.938, 127.458, 0.000
7.453, 4.746, -3.530, 29.922, 128.439, 0.000
7.100, 4.119, -3.099, 27.998, 125.978, 0.000
7.414, 5.217, -4.040, 31.712, 131.671, 0.000
4.746, 4.040, -5.452, 29.201, 145.031, 0.000
7.532, 5.256, -4.746, 30.560, 133.239, 0.000
8.198, 4.982, -4.903, 27.542, 130.451, 0.000
8.198, 5.492, -2.824, 32.347, 126.989, 0.000
5.531, 7.257, 2.275, 50.507, 36.027, 0.000
-3.609, 6.472, 9.493, 32.510, -17.438, 0.000
-2.079, 9.179, 4.943, 59.708, -11.278, 0.000
-5.335, 8.081, 4.276, 49.767, -30.265, 0.000
-8.120, 7.335, 2.981, 40.299, -45.721, 0.000
-5.335, 2.157, -2.667, 19.886, -122.744, 0.000
-7.688, -5.139, -2.197, -32.727, -126.012, 0.000
-10.042, -1.138, -1.334, -6.407, -99.902, 0.000
-7.610, 0.981, -2.707, 6.923, -110.721, 0.000
-9.101, -1.804, -3.060, -10.644, -111.322, 0.000
-7.532, -5.649, -5.335, -31.467, -135.892, 0.000
-9.101, -2.471, -4.354, -13.764, -118.817, 0.000
-8.512, 0.078, -5.217, 0.450, -121.507, 0.000
-8.748, 1.373, -5.806, 7.450, -124.293, 0.000
-7.375, 0.353, -3.609, 2.462, -116.183, 0.000
-8.904, -0.314, -5.649, -1.705, -122.429, 0.000
-8.591, -1.530, -2.981, -9.550, -111.309, 0.000
-8.512, -0.510, -5.923, -2.815, -124.931, 0.000
-8.120, -0.785, -4.433, -4.847, -119.003, 0.000
-7.924, 0.196, -4.276, 1.248, -118.377, 0.000
-8.512, 0.118, -4.511, 0.700, -117.930, 0.000
-8.669, -0.863, -5.099, -4.904, -120.820, 0.000
-8.591, -0.941, -4.393, -5.573, -117.611, 0.000
-9.257, -0.078, -4.040, -0.445, -113.582, 0.000
-6.512, 5.531, -2.550, 38.341, -133.085, 0.000
-7.178, 7.218, -3.373, 42.302, -137.981, 0.000
-6.590, 6.629, -6.002, 36.640, -143.612, 0.000
-6.237, 5.766, -4.472, 36.920, -139.479, 0.000
-6.355, 5.531, -3.962, 36.449, -136.954, 0.000
-3.491, -2.001, -9.022, -11.684, -159.304, 0.000
-1.726, -0.667, -10.003, -3.759, -170.231, 0.000
0.275, 0.196, -9.924, 1.132, 178.415, 0.000
4.354, -2.746, -9.611, -14.588, 156.461, 0.000
0.824, -0.667, -9.375, -4.053, 174.991, 0.000
-2.511, 0.039, -11.690, 0.188, -167.879, 0.000
-3.844, -0.981, -1.922, -12.853, -119.306, 0.000
-16.122, 2.236, 1.020, 7.880, -81.333, 0.000
-10.199, 0.275, 4.040, 1.434, -68.344, 0.000
-9.179, 0.745, 3.099, 4.399, -70.851, 0.000
-9.493, 0.235, 3.138, 1.349, -71.659, 0.000
-9.414, 0.471, 1.098, 2.843, -82.766, 0.000
-10.513, 0.863, 2.157, 4.597, -77.536, 0.000
-8.826, -0.078, 0.863, -0.507, -84.393, 0.000
-9.571, -0.118, 1.608, -0.695, -80.437, 0.000
-10.160, -0.157, 0.745, -0.882, -85.713, 0.000
-10.317, 0.039, 0.902, 0.217, -84.997, 0.000
-9.571, 1.177, 1.373, 6.939, -79.301, 0.000
-9.767, 2.550, 0.353, 14.621, -75.236, 0.000
-9.454, 1.883, 1.020, 11.201, -77.237, 0.000
-9.611, 1.648, 0.745, 9.699, -79.344, 0.000
-9.454, 1.059, 0.981, 6.359, -81.319, 0.000
-10.160, 1.451, 1.020, 8.090, -80.096, 0.000
-9.454, 1.608, 0.628, 9.634, -79.651, 0.000
-9.218, 1.726, 1.216, 10.516, -77.100, 0.000
-9.571, 2.864, 1.373, 16.497, -71.645, 0.000
-9.297, 3.727, 1.373, 21.630, -66.869, 0.000
-9.140, 3.295, 1.138, 19.685, -69.123, 0.000
-9.140, 2.746, 0.981, 16.632, -72.307, 0.000
-9.336, 3.727, 1.138, 21.615, -67.347, 0.000
-8.983, 3.138, 1.020, 19.143, -69.830, 0.000
-9.336, 3.766, 0.824, 21.890, -67.564, 0.000
-8.865, 3.923, 0.941, 23.750, -65.532, 0.000
-9.336, 4.393, 0.824, 25.116, -64.415, 0.000
-9.218, 4.433, 0.667, 25.622, -64.068, 0.000
-9.022, 3.962, 1.020, 23.574, -65.608, 0.000
-8.748, 4.119, 0.745, 25.134, -64.429, 0.000
-9.218, 3.727, 1.059, 21.881, -67.205, 0.000
-9.061, 3.923, 0.785, 23.330, -66.180, 0.000
-9.061, 4.040, 0.981, 23.908, -65.353, 0.000
-8.826, 3.687, 1.530, 22.374, -65.662, 0.000
-8.983, 3.923, 0.863, 23.494, -65.909, 0.000
-8.944, 3.923, 0.902, 23.576, -65.770, 0.000
-8.865, 3.609, 0.667, 22.094, -67.512, 0.000
-9.571, 3.844, 0.628, 21.840, -67.856, 0.000
-9.454, 3.373, 0.314, 19.629, -70.283, 0.000
-9.061, 4.276, 0.667, 25.201, -64.472, 0.000
-9.140, 3.766, 1.020, 22.268, -66.884, 0.000
-8.826, 3.373, 0.824, 20.835, -68.523, 0.000
-9.571, 3.962, 0.981, 22.381, -66.905, 0.000
-9.336, 3.687, 0.981, 21.445, -67.771, 0.000
-9.179, 3.295, 1.138, 19.608, -69.205, 0.000
-9.061, 3.334, 0.981, 20.094, -69.016, 0.000
-9.218, 3.256, 1.138, 19.317, -69.488, 0.000
-9.218, 3.530, 1.098, 20.821, -68.145, 0.000
-9.218, 3.295, 1.059, 19.550, -69.421, 0.000
-9.650, 3.217, 0.902, 18.360, -70.904, 0.000
-9.964, 3.844, 0.981, 21.005, -68.288, 0.000
-12.121, 0.667, 0.039, 3.149, -86.846, 0.000
-7.728, -2.079, -1.334, -14.848, -107.726, 0.000
-7.218, -4.040, -2.981, -27.356, -124.825, 0.000
-3.256, -4.158, -4.550, -36.618, -152.157, 0.000
-1.922, -5.217, -7.728, -33.231, -168.352, 0.000
-6.159, -3.609, -8.669, -18.746, -146.741, 0.000
-1.608, -4.315, -7.806, -28.431, -169.778, 0.000
-1.216, -3.609, -8.434, -22.954, -172.449, 0.000
-1.020, -3.060, -9.061, -18.549, -173.913, 0.000
-1.059, -2.785, -8.748, -17.541, -173.419, 0.000
-1.294, -2.707, -8.748, -17.018, -171.953, 0.000
-1.294, -2.824, -9.414, -16.552, -172.497, 0.000
-1.216, -2.707, -9.022, -16.558, -172.644, 0.000
-1.373, -2.511, -8.630, -16.029, -171.315, 0.000
-1.451, -2.628, -9.807, -14.848, -171.864, 0.000
-1.804, -2.001, -8.904, -12.418, -168.816, 0.000
-2.040, -2.040, -9.061, -12.386, -167.614, 0.000
-1.373, -3.177, -9.493, -18.328, -172.191, 0.000
-3.020, -0.863, -8.355, -5.548, -160.222, 0.000
-2.707, -1.020, -8.198, -6.737, -161.860, 0.000
-3.413, -0.667, -8.473, -4.175, -158.123, 0.000
-3.805, -0.588, -8.198, -3.725, -155.159, 0.000
-4.668, -0.667, -7.963, -4.132, -149.708, 0.000
-5.688, -0.785, -7.571, -4.736, -143.229, 0.000
-6.198, -0.392, -6.276, -2.546, -135.416, 0.000
-6.355, -0.667, -6.512, -4.192, -135.848, 0.000
-6.472, -0.824, -7.375, -4.799, -138.904, 0.000
-6.394, -0.392, -6.747, -2.416, -136.587, 0.000
-6.629, -0.471, -6.865, -2.824, -136.066, 0.000
-6.315, -0.471, -6.708, -2.925, -136.795, 0.000
-7.178, -0.471, -7.100, -2.669, -134.748, 0.000
-6.590, 0.000, -6.159, 0.000, -133.061, 0.000
-7.767, 0.196, -6.159, 1.134, -128.426, 0.000
-6.982, -0.510, -5.845, -3.205, -130.039, 0.000
-7.375, 0.078, -5.374, 0.493, -126.085, 0.000
-8.198, -0.824, -4.354, -5.071, -118.392, 0.000
-8.748, 0.941, -4.668, 5.424, -118.563, 0.000
-8.238, 1.412, -2.942, 9.171, -111.611, 0.000
-8.551, 1.020, -4.354, 6.067, -117.608, 0.000
-8.355, -0.824, -3.177, -5.265, -111.448, 0.000
-8.159, -1.138, -4.511, -6.957, -119.692, 0.000
-8.081, -0.314, -4.433, -1.950, -118.807, 0.000
-5.217, -3.648, -7.257, -22.204, -147.286, 0.000
-2.079, -4.119, -7.845, -26.907, -166.796, 0.000
-2.785, -3.413, -10.827, -16.976, -166.215, 0.000
0.628, -3.844, -8.551, -24.148, 176.170, 0.000
1.334, -4.354, -8.983, -25.616, 172.390, 0.000
0.706, -3.530, -8.748, -21.914, 175.719, 0.000
0.902, -3.648, -8.355, -23.465, 174.348, 0.000
0.981, -3.962, -8.826, -24.044, 174.212, 0.000
0.981, -3.609, -8.473, -22.933, 173.922, 0.000
0.941, -3.766, -8.904, -22.810, 174.438, 0.000
0.902, -3.727, -7.767, -25.482, 174.021, 0.000
0.785, -3.923, -9.179, -23.064, 175.506, 0.000
0.549, -3.413, -8.983, -20.767, 176.729, 0.000
0.628, -3.530, -8.551, -22.379, 176.119, 0.000
1.020, -4.158, -9.179, -24.238, 174.221, 0.000
0.706, -3.609, -8.473, -22.999, 175.616, 0.000
1.059, -3.256, -8.708, -20.362, 173.501, 0.000
0.392, -3.138, -8.944, -19.318, 177.630, 0.000
-0.078, -3.727, -9.375, -21.677, -179.554, 0.000
-0.235, -3.060, -8.355, -20.105, -178.485, 0.000
0.196, -2.432, -8.434, -16.082, 178.720, 0.000
0.314, -2.667, -8.630, -17.165, 178.010, 0.000
0.431, -2.903, -8.787, -18.261, 177.330, 0.000
0.078, -2.354, -8.630, -15.255, 179.498, 0.000
0.078, -2.550, -8.983, -15.846, 179.519, 0.000
0.588, -2.628, -9.728, -15.092, 176.658, 0.000
0.196, -2.707, -8.983, -16.764, 178.802, 0.000
0.157, -2.471, -8.826, -15.640, 179.019, 0.000
0.078, -2.314, -8.708, -14.883, 179.501, 0.000
-0.196, -2.157, -8.512, -14.219, -178.721, 0.000
-0.078, -1.883, -8.473, -12.528, -179.482, 0.000
0.235, -2.354, -8.787, -14.990, 178.518, 0.000
0.118, -2.628, -9.140, -16.042, 179.291, 0.000
0.000, -2.314, -8.591, -15.078, 180.000, 0.000
0.000, -2.197, -8.865, -13.917, 180.000, 0.000
0.196, -2.354, -8.904, -14.802, 178.780, 0.000
-0.235, -2.275, -8.904, -14.328, -178.533, 0.000
-0.235, -2.079, -8.748, -13.365, -178.501, 0.000
-0.118, -2.314, -8.983, -14.446, -179.273, 0.000
-0.275, -2.432, -9.179, -14.834, -178.344, 0.000
-0.314, -2.197, -9.061, -13.619, -178.072, 0.000
-0.471, -2.393, -8.904, -15.021, -177.077, 0.000
-0.588, -1.961, -9.297, -11.890, -176.456, 0.000
-0.785, -1.648, -8.473, -10.958, -174.807, 0.000
-0.510, -1.451, -9.493, -8.680, -176.960, 0.000
-0.588, -1.334, -8.748, -8.650, -176.196, 0.000
-0.392, -1.530, -8.865, -9.782, -177.503, 0.000
-0.039, -1.334, -9.061, -8.373, -179.755, 0.000
-0.706, -0.941, -9.179, -5.839, -175.624, 0.000
-0.471, -2.197, -9.218, -13.387, -177.156, 0.000
-0.863, -1.373, -8.591, -9.035, -174.335, 0.000
-0.431, -1.569, -9.375, -9.491, -177.401, 0.000
-0.275, -1.138, -8.944, -7.245, -178.256, 0.000
-0.628, -1.059, -9.650, -6.250, -176.301, 0.000
-0.941, -0.941, -9.493, -5.636, -174.364, 0.000
-0.706, -0.941, -8.708, -6.150, -175.391, 0.000
-0.628, -0.824, -8.865, -5.296, -175.968, 0.000
-0.706, -1.059, -9.375, -6.427, -175.720, 0.000
-0.667, -1.059, -9.140, -6.593, -175.855, 0.000
-0.549, -1.098, -8.865, -7.049, -176.482, 0.000
-1.020, -1.098, -8.904, -6.987, -173.515, 0.000
-1.098, -1.177, -9.061, -7.346, -173.146, 0.000
-1.255, -1.020, -9.101, -6.335, -172.195, 0.000
-1.373, -1.138, -9.336, -6.874, -171.695, 0.000
-1.373, -1.255, -8.944, -7.898, -171.356, 0.000
-1.373, -1.216, -9.101, -7.527, -171.495, 0.000
-3.373, 2.354, -3.883, 24.586, -143.391, 0.000
-2.667, -1.883, -8.394, -12.066, -162.774, 0.000
0.235, -3.373, -9.218, -20.094, 178.626, 0.000
-1.294, -3.570, -8.512, -22.518, -172.017, 0.000
0.000, -0.118, -8.591, -0.785, 180.000, 0.000
-1.687, 0.785, -10.003, 4.422, -170.457, 0.000
-0.667, 1.294, -7.845, 9.336, -175.206, 0.000
4.158, -0.981, -8.904, -5.699, 155.101, 0.000
0.824, -0.157, -12.160, -0.738, 176.125, 0.000
0.510, 1.098, -8.669, 7.208, 176.660, 0.000
-0.039, 1.294, -8.826, 8.344, -179.748, 0.000
0.824, 1.138, -8.159, 7.898, 174.290, 0.000
-1.687, 2.275, -5.139, 22.815, -163.293, 0.000
1.059, 1.569, -7.963, 11.052, 172.565, 0.000
1.883, 1.138, -8.983, 7.065, 168.253, 0.000
2.040, 1.098, -8.865, 6.885, 167.137, 0.000
2.079, 1.177, -8.944, 7.303, 167.022, 0.000
2.118, 1.059, -8.826, 6.656, 166.597, 0.000
2.157, 1.177, -8.944, 7.289, 166.549, 0.000
2.001, 1.138, -8.865, 7.135, 167.384, 0.000
2.040, 1.177, -8.865, 7.371, 167.151, 0.000
2.040, 1.138, -8.865, 7.128, 167.144, 0.000
2.040, 1.138, -8.944, 7.069, 167.252, 0.000
2.079, 1.138, -8.865, 7.121, 166.906, 0.000
2.001, 1.059, -8.865, 6.647, 167.370, 0.000
2.079, 1.177, -8.904, 7.334, 166.967, 0.000
2.001, 1.138, -8.865, 7.135, 167.384, 0.000
2.040, 1.138, -8.865, 7.128, 167.144, 0.000
2.040, 1.098, -8.904, 6.856, 167.191, 0.000
2.001, 1.138, -8.904, 7.105, 167.436, 0.000
2.001, 1.138, -8.904, 7.105, 167.436, 0.000
2.079, 1.138, -8.944, 7.062, 167.015, 0.000
2.040, 1.177, -9.022, 7.250, 167.364, 0.000
2.040, 1.138, -8.826, 7.158, 167.090, 0.000
2.040, 1.177, -8.865, 7.371, 167.151, 0.000
2.040, 1.098, -8.865, 6.885, 167.137, 0.000
2.040, 1.216, -8.983, 7.520, 167.318, 0.000
2.079, 1.098, -8.904, 6.849, 166.953, 0.000
2.079, 1.138, -8.904, 7.092, 166.960, 0.000
2.040, 1.138, -8.944, 7.069, 167.252, 0.000
2.040, 1.216, -8.983, 7.520, 167.318, 0.000
2.040, 1.138, -8.865, 7.128, 167.144, 0.000
2.040, 1.216, -8.865, 7.614, 167.159, 0.000
1.961, 1.177, -8.826, 7.416, 167.578, 0.000
2.001, 1.098, -8.865, 6.891, 167.377, 0.000
2.040, 1.098, -8.787, 6.942, 167.028, 0.000
2.079, 1.098, -8.865, 6.878, 166.899, 0.000
2.040, 1.177, -8.904, 7.341, 167.205, 0.000
2.001, 1.138, -8.826, 7.165, 167.330, 0.000
2.040, 1.138, -8.787, 7.188, 167.035, 0.000
2.079, 1.098, -8.865, 6.878, 166.899, 0.000
2.079, 1.138, -8.865, 7.121, 166.906, 0.000
2.079, 1.177, -8.983, 7.273, 167.076, 0.000
2.157, 1.098, -8.904, 6.836, 166.479, 0.000
2.040, 1.177, -8.826, 7.402, 167.097, 0.000
2.118, 1.138, -8.826, 7.144, 166.611, 0.000
2.079, 1.177, -8.787, 7.426, 166.802, 0.000
2.040, 1.177, -9.061, 7.221, 167.416, 0.000
2.079, 1.138, -8.826, 7.151, 166.850, 0.000
2.040, 1.138, -8.826, 7.158, 167.090, 0.000
2.079, 1.138, -8.826, 7.151, 166.850, 0.000
2.040, 1.177, -8.826, 7.402, 167.097, 0.000
2.001, 1.138, -8.787, 7.195, 167.276, 0.000
2.040, 1.138, -8.826, 7.158, 167.090, 0.000
2.118, 1.177, -8.787, 7.418, 166.562, 0.000
2.040, 1.255, -8.904, 7.824, 167.220, 0.000
2.118, 1.177, -8.787, 7.418, 166.562, 0.000
2.079, 1.098, -8.904, 6.849, 166.953, 0.000
5.766, 1.648, -10.042, 8.097, 150.462, 0.000
-0.039, -5.296, -6.904, -37.489, -179.742, 0.000
0.078, -7.885, -3.334, -67.072, 179.475, 0.000
0.941, -6.904, -0.510, -81.185, 172.256, 0.000
3.805, -9.964, -2.001, -66.662, 159.473, 0.000
7.885, -16.004, -1.765, -63.213, 153.910, 0.000
7.610, -8.434, -3.413, -45.320, 140.090, 0.000
7.218, -5.296, -3.570, -33.331, 131.503, 0.000
11.140, -3.020, -5.688, -13.576, 120.032, 0.000
7.139, -1.648, -5.139, -10.608, 127.085, 0.000
8.081, -2.511, -9.689, -11.254, 141.084, 0.000
3.452, -2.824, -3.256, -30.761, 141.309, 0.000
5.962, -6.590, -4.550, -41.304, 143.331, 0.000
4.197, -7.924, -3.923, -54.057, 154.606, 0.000
2.589, -8.708, -3.138, -64.960, 164.374, 0.000
4.080, -10.238, -3.217, -63.095, 159.186, 0.000
0.549, -9.689, -3.962, -67.568, 176.997, 0.000
2.079, -8.904, -3.923, -63.500, 167.939, 0.000
-0.471, -9.022, -4.236, -64.711, -177.296, 0.000
0.196, -9.257, -4.080, -66.194, 178.889, 0.000
0.157, -9.022, -3.609, -68.180, 179.075, 0.000
-0.039, -9.375, -3.099, -71.708, -179.772, 0.000
-0.314, -9.022, -3.805, -67.063, -178.164, 0.000
0.000, -9.885, -2.001, -78.559, 180.000, 0.000
-0.431, -9.297, -2.746, -73.354, -177.451, 0.000
-0.549, -9.728, -2.746, -73.942, -176.890, 0.000
-0.902, -9.650, -2.393, -75.157, -174.815, 0.000
-0.863, -9.571, -2.707, -73.468, -175.041, 0.000
-0.902, -9.571, -2.432, -74.836, -174.780, 0.000
-0.392, -9.728, -2.785, -73.875, -177.780, 0.000
-0.863, -9.336, -2.824, -72.446, -174.944, 0.000
-0.706, -9.611, -2.393, -75.448, -175.922, 0.000
-0.745, -9.336, -2.628, -73.690, -175.606, 0.000
-0.118, -9.179, -3.138, -71.113, -179.305, 0.000
-0.745, -9.061, -3.452, -68.708, -175.605, 0.000
0.118, -8.983, -3.805, -67.034, 179.309, 0.000
0.275, -9.022, -4.158, -65.209, 178.417, 0.000
0.431, -8.944, -4.236, -64.539, 177.503, 0.000
-0.157, -8.826, -4.001, -65.597, -179.072, 0.000
-0.314, -8.983, -3.805, -66.974, -178.158, 0.000
-0.314, -9.022, -3.805, -67.063, -178.164, 0.000
0.039, -9.257, -3.687, -68.281, 179.774, 0.000
-0.039, -9.061, -3.844, -67.010, -179.772, 0.000
-0.314, -9.179, -3.570, -68.675, -178.175, 0.000
-0.275, -8.865, -3.570, -68.009, -178.354, 0.000
-0.392, -9.257, -3.687, -68.171, -177.746, 0.000
-0.157, -9.454, -3.413, -70.131, -179.106, 0.000
-0.235, -9.179, -3.530, -68.920, -178.629, 0.000
-0.510, -8.983, -3.452, -68.771, -176.967, 0.000
-0.275, -9.140, -3.099, -71.202, -178.370, 0.000
-0.314, -9.257, -3.295, -70.326, -178.171, 0.000
0.118, -9.140, -3.766, -67.598, 179.318, 0.000
-0.314, -9.140, -3.334, -69.876, -178.153, 0.000
-0.745, -9.493, -3.530, -69.188, -175.791, 0.000
0.157, -9.297, -3.413, -69.823, 179.092, 0.000
0.235, -10.120, -3.844, -69.165, 178.755, 0.000
0.824, -8.904, -3.452, -68.270, 175.070, 0.000
1.294, -8.904, -2.864, -70.561, 172.121, 0.000
2.746, -9.493, -3.138, -66.286, 164.643, 0.000
3.530, -7.728, -4.629, -53.008, 158.599, 0.000
3.648, -3.373, -2.942, -35.747, 140.820, 0.000
4.746, -0.118, -6.315, -0.853, 143.078, 0.000
7.845, -7.532, -4.786, -39.337, 138.678, 0.000
2.157, -8.355, -7.257, -47.820, 168.969, 0.000
0.431, -9.140, -3.962, -66.441, 177.520, 0.000
1.177, -9.375, -0.785, -81.421, 172.870, 0.000
2.628, -8.826, -2.275, -68.503, 163.915, 0.000
1.530, -9.964, 0.549, -80.735, 8.716, 0.000
3.452, -8.198, 6.865, -46.856, 17.892, 0.000
1.608, -5.413, 8.238, -32.821, 9.267, 0.000
1.138, -3.883, 9.493, -22.106, 6.329, 0.000
0.863, -4.472, 9.571, -24.954, 4.670, 0.000
0.549, -4.511, 9.336, -25.751, 3.032, 0.000
0.941, -4.433, 9.532, -24.833, 5.118, 0.000
0.706, -4.393, 9.532, -24.686, 3.849, 0.000
0.510, -5.217, 9.885, -27.793, 2.612, 0.000
0.510, -5.021, 9.179, -28.642, 2.790, 0.000
0.392, -4.864, 9.414, -27.304, 2.120, 0.000
0.235, -5.060, 9.218, -28.756, 1.282, 0.000
0.157, -5.099, 9.257, -28.845, 0.851, 0.000
-0.078, -4.746, 9.140, -27.443, -0.436, 0.000
-0.275, -4.982, 9.375, -27.975, -1.482, 0.000
-0.510, -4.707, 9.689, -25.881, -2.710, 0.000
-0.196, -4.668, 9.336, -26.560, -1.076, 0.000
-1.216, -4.943, 9.179, -28.093, -6.653, 0.000
-0.941, -4.119, 9.532, -23.268, -5.180, 0.000
-0.392, -4.158, 9.101, -24.535, -2.245, 0.000
-0.863, -5.060, 9.375, -28.257, -4.631, 0.000
-0.314, -4.943, 9.493, -27.491, -1.680, 0.000
-0.981, -5.335, 8.630, -31.559, -5.521, 0.000
-1.138, -5.570, 8.904, -31.820, -6.181, 0.000
-0.667, -5.099, 9.218, -28.888, -3.622, 0.000
-0.667, -4.786, 9.297, -27.178, -3.649, 0.000
-0.628, -4.276, 9.807, -23.514, -3.357, 0.000
-0.667, -5.060, 9.218, -28.701, -3.629, 0.000
-1.059, -4.943, 8.826, -29.075, -5.977, 0.000
-0.706, -4.746, 9.414, -26.691, -3.831, 0.000
0.039, -6.198, 9.728, -32.501, 0.195, 0.000
-0.902, -4.903, 8.944, -28.611, -5.055, 0.000
-2.040, -5.766, 7.610, -36.200, -12.059, 0.000
-0.392, -4.746, 9.218, -27.223, -2.167, 0.000
-0.471, -5.413, 9.179, -30.497, -2.529, 0.000
-0.785, -5.060, 9.179, -28.779, -4.281, 0.000
-1.255, -5.256, 8.787, -30.634, -6.989, 0.000
-1.020, -5.099, 9.061, -29.216, -5.602, 0.000
-1.530, -4.864, 9.257, -27.402, -8.323, 0.000
-1.373, -4.982, 9.140, -28.325, -7.514, 0.000
-1.530, -4.982, 9.140, -28.262, -8.361, 0.000
-1.569, -5.609, 9.454, -30.343, -8.123, 0.000
-1.844, -4.903, 9.140, -27.739, -10.079, 0.000
-1.804, -4.590, 9.140, -26.227, -10.006, 0.000
-1.687, -4.668, 9.571, -25.655, -9.001, 0.000
-1.922, -4.943, 8.983, -28.282, -10.618, 0.000
-2.001, -5.060, 9.140, -28.406, -10.841, 0.000
-2.118, -4.668, 9.336, -25.994, -11.472, 0.000
-1.883, -4.786, 9.140, -27.150, -10.343, 0.000
-2.157, -4.354, 9.061, -25.054, -12.112, 0.000
-2.157, -4.197, 9.218, -23.910, -12.024, 0.000
-2.001, -4.511, 9.140, -25.741, -11.105, 0.000
-1.844, -5.060, 9.061, -28.689, -10.073, 0.000
-1.804, -4.943, 9.297, -27.560, -9.725, 0.000
-2.118, -5.178, 9.532, -27.936, -11.049, 0.000
-2.001, -4.746, 9.140, -26.899, -10.993, 0.000
-1.530, -4.236, 9.454, -23.864, -8.400, 0.000
-1.334, -4.040, 9.650, -22.527, -7.265, 0.000
-1.020, -4.315, 9.846, -23.553, -5.420, 0.000
-1.098, -4.236, 10.395, -22.062, -5.588, 0.000
-1.334, -4.158, 9.571, -23.281, -7.283, 0.000
-0.628, -3.923, 10.630, -20.222, -3.170, 0.000
-0.392, -3.020, 9.414, -17.774, -2.272, 0.000
-0.706, -2.981, 10.120, -16.376, -3.829, 0.000
2.118, -2.511, 10.120, -13.647, 11.483, 0.000
2.314, -12.317, 5.845, -62.962, 9.634, 0.000
1.138, -6.551, 3.570, -60.234, 8.670, 0.000
2.393, -10.748, -2.079, -73.568, 167.670, 0.000
1.334, -0.118, -5.335, -1.226, 165.967, 0.000
0.275, 8.120, -9.101, 41.728, 178.710, 0.000
-2.118, 8.630, -4.158, 61.598, -167.531, 0.000
6.590, 3.570, 0.078, 28.441, 61.551, 0.000
2.511, -2.667, -14.710, -10.135, 170.467, 0.000
1.177, 1.412, -6.943, 11.339, 170.570, 0.000
2.471, 3.295, -8.512, 20.392, 164.851, 0.000
-0.118, 2.589, -2.471, 46.300, -178.117, 0.000
1.804, 0.510, -9.140, 3.133, 168.849, 0.000
1.765, 0.902, -8.983, 5.628, 168.937, 0.000
1.804, 1.059, -8.904, 6.649, 168.623, 0.000
1.844, 0.941, -9.022, 5.837, 168.511, 0.000
1.804, 1.059, -8.944, 6.621, 168.671, 0.000
1.844, 0.981, -8.944, 6.130, 168.420, 0.000
1.844, 0.981, -8.944, 6.130, 168.420, 0.000
1.883, 0.981, -8.944, 6.124, 168.180, 0.000
1.804, 1.020, -8.983, 6.352, 168.713, 0.000
1.883, 0.941, -8.944, 5.881, 168.175, 0.000
1.883, 0.941, -8.983, 5.857, 168.224, 0.000
1.765, 1.020, -8.865, 6.437, 168.811, 0.000
1.844, 0.981, -8.865, 6.181, 168.321, 0.000
1.844, 0.981, -8.983, 6.104, 168.468, 0.000
1.883, 0.981, -8.904, 6.150, 168.130, 0.000
1.844, 0.981, -8.826, 6.207, 168.271, 0.000
1.765, 1.020, -8.904, 6.410, 168.858, 0.000
1.844, 1.020, -8.865, 6.426, 168.327, 0.000
1.883, 0.981, -8.983, 6.099, 168.230, 0.000
1.922, 1.020, -8.983, 6.335, 167.997, 0.000
1.804, 0.941, -8.904, 5.916, 168.606, 0.000
1.804, 0.981, -8.983, 6.109, 168.707, 0.000
1.844, 0.981, -8.983, 6.104, 168.468, 0.000
1.804, 0.981, -8.904, 6.161, 168.612, 0.000
1.765, 0.981, -9.022, 6.089, 168.993, 0.000
1.844, 1.020, -8.865, 6.426, 168.327, 0.000
1.765, 0.981, -8.865, 6.192, 168.805, 0.000
1.804, 1.020, -8.983, 6.352, 168.713, 0.000
1.804, 1.020, -8.904, 6.405, 168.617, 0.000
1.844, 1.020, -8.904, 6.399, 168.376, 0.000
1.726, 0.981, -8.944, 6.145, 169.141, 0.000
1.844, 0.981, -8.904, 6.155, 168.371, 0.000
1.844, 0.981, -9.022, 6.079, 168.517, 0.000
1.804, 0.981, -8.865, 6.187, 168.563, 0.000
1.804, 1.059, -8.983, 6.594, 168.718, 0.000
1.883, 1.059, -8.983, 6.583, 168.241, 0.000
1.883, 0.981, -9.022, 6.074, 168.279, 0.000
1.804, 1.098, -8.944, 6.864, 168.676, 0.000
1.883, 0.981, -8.983, 6.099, 168.230, 0.000
1.804, 0.941, -8.904, 5.916, 168.606, 0.000
1.804, 1.059, -8.904, 6.649, 168.623, 0.000
1.883, 1.059, -8.983, 6.583, 168.241, 0.000
1.765, 0.941, -8.944, 5.896, 168.895, 0.000
1.883, 0.981, -8.787, 6.228, 167.978, 0.000
1.844, 0.941, -8.904, 5.911, 168.365, 0.000
1.844, 1.020, -8.983, 6.346, 168.474, 0.000
1.844, 1.020, -8.983, 6.346, 168.474, 0.000
1.844, 1.020, -8.904, 6.399, 168.376, 0.000
1.844, 0.941, -8.865, 5.936, 168.316, 0.000
1.883, 0.981, -9.022, 6.074, 168.279, 0.000
1.726, 0.981, -8.865, 6.197, 169.048, 0.000
1.765, 1.020, -8.865, 6.437, 168.811, 0.000
1.844, 1.020, -8.826, 6.454, 168.277, 0.000
1.844, 0.902, -8.904, 5.666, 168.360, 0.000
1.883, 1.059, -8.865, 6.665, 168.091, 0.000
1.765, 1.059, -8.904, 6.655, 168.864, 0.000
1.883, 1.020, -8.983, 6.341, 168.235, 0.000
1.883, 1.020, -8.904, 6.394, 168.136, 0.000
1.844, 1.020, -8.904, 6.399, 168.376, 0.000
1.883, 0.981, -8.865, 6.176, 168.080, 0.000
1.922, 0.941, -8.865, 5.925, 167.833, 0.000
1.883, 1.020, -8.944, 6.367, 168.186, 0.000
1.883, 1.020, -9.022, 6.315, 168.284, 0.000
1.844, 0.941, -8.865, 5.936, 168.316, 0.000
1.883, 0.981, -8.944, 6.124, 168.180, 0.000
1.765, 1.020, -8.983, 6.357, 168.952, 0.000
1.844, 1.020, -8.904, 6.399, 168.376, 0.000
1.765, 0.941, -8.944, 5.896, 168.895, 0.000
1.765, 1.020, -8.983, 6.357, 168.952, 0.000
1.883, 0.941, -8.904, 5.906, 168.125, 0.000
1.765, 0.981, -8.904, 6.166, 168.853, 0.000
1.804, 0.981, -8.983, 6.109, 168.707, 0.000
1.844, 0.941, -8.944, 5.886, 168.414, 0.000
1.844, 0.941, -8.904, 5.911, 168.365, 0.000
1.883, 1.020, -8.904, 6.394, 168.136, 0.000
1.844, 0.981, -8.865, 6.181, 168.321, 0.000
1.765, 0.981, -8.787, 6.245, 168.709, 0.000
1.804, 0.941, -8.904, 5.916, 168.606, 0.000
1.804, 1.059, -8.865, 6.677, 168.574, 0.000
1.844, 0.981, -8.944, 6.130, 168.420, 0.000
1.804, 0.981, -8.944, 6.135, 168.660, 0.000
1.804, 0.981, -8.904, 6.161, 168.612, 0.000
1.569, 0.981, -8.865, 6.217, 170.023, 0.000
-2.236, -1.804, -10.944, -9.176, -168.603, 0.000
-0.941, -4.707, -8.669, -28.361, -174.548, 0.000
-0.941, -2.118, -10.944, -10.915, -175.173, 0.000
-1.608, -3.570, -6.198, -29.139, -167.327, 0.000
0.667, -6.041, -7.218, -39.808, 175.947, 0.000
3.609, -7.688, -8.316, -40.302, 162.326, 0.000
-1.138, -7.532, -9.022, -39.632, -174.471, 0.000
-3.727, -6.394, -5.413, -44.213, -156.020, 0.000
-2.118, -4.629, -7.061, -32.125, -165.916, 0.000
-2.667, -3.609, -6.865, -26.106, -161.020, 0.000
0.275, -2.197, -5.806, -20.704, 177.467, 0.000
-2.589, -7.610, -9.767, -36.984, -168.190, 0.000
1.294, -7.532, -1.059, -77.479, 170.341, 0.000
-0.588, 7.728, -6.315, 50.621, -176.626, 0.000
0.000, 13.062, -0.588, 87.421, 180.000, 0.000
-0.667, 11.140, -2.197, 78.356, -176.639, 0.000
-1.922, 8.277, -0.275, 76.798, -166.933, 0.000
0.431, 10.395, -1.294, 82.522, 177.641, 0.000
1.020, 10.709, -0.275, 84.367, 174.561, 0.000
1.412, 10.866, 0.039, 82.592, 7.405, 0.000
0.863, 7.885, -0.392, 83.144, 173.761, 0.000
3.020, 12.670, 1.098, 75.766, 13.360, 0.000
4.590, 8.865, 1.648, 61.187, 26.975, 0.000
5.296, 7.806, 2.432, 53.258, 32.931, 0.000
4.943, 8.512, 1.608, 58.591, 29.707, 0.000
5.217, 8.591, 2.197, 56.617, 30.471, 0.000
4.354, 8.669, 3.217, 58.017, 25.215, 0.000
4.550, 8.551, 1.804, 60.212, 27.504, 0.000
3.334, 9.611, 2.275, 67.217, 18.655, 0.000
2.040, 10.434, 1.020, 77.671, 11.010, 0.000
1.804, 9.532, -2.824, 70.628, 169.713, 0.000
1.491, 7.414, -2.432, 68.956, 169.184, 0.000
2.040, 10.395, -2.393, 73.171, 169.174, 0.000
0.941, 7.885, -2.903, 68.842, 173.607, 0.000
1.138, 8.904, -3.452, 67.796, 173.207, 0.000
1.138, 8.787, -4.786, 60.759, 173.514, 0.000
0.275, 7.610, -5.845, 52.444, 178.361, 0.000
0.078, 8.355, -5.570, 56.307, 179.552, 0.000
-0.118, 7.688, -5.374, 55.041, -179.281, 0.000
0.275, 7.610, -5.570, 53.764, 178.332, 0.000
0.196, 7.492, -5.609, 53.161, 178.800, 0.000
0.078, 7.649, -5.884, 52.429, 179.534, 0.000
0.118, 7.688, -5.531, 54.263, 179.288, 0.000
0.118, 7.610, -5.884, 52.283, 179.299, 0.000
-0.039, 8.277, -4.903, 59.356, -179.766, 0.000
0.157, 8.238, -5.452, 56.488, 179.090, 0.000
0.275, 8.198, -5.531, 55.962, 178.410, 0.000
0.157, 8.198, -6.002, 53.784, 179.115, 0.000
0.039, 7.845, -4.943, 57.788, 179.758, 0.000
0.275, 8.316, -5.139, 58.251, 178.391, 0.000
0.196, 8.355, -5.178, 58.194, 178.857, 0.000
0.275, 8.512, -5.178, 58.652, 178.421, 0.000
0.392, 8.630, -4.707, 61.306, 177.715, 0.000
0.275, 8.041, -4.982, 58.182, 178.337, 0.000
-0.078, 9.218, -4.001, 66.533, -179.553, 0.000
0.510, 8.944, -4.511, 63.088, 177.086, 0.000
0.471, 8.551, -4.668, 61.249, 177.234, 0.000
0.824, 8.826, -3.727, 66.616, 175.086, 0.000
0.745, 8.512, -4.158, 63.606, 175.502, 0.000
0.745, 8.669, -4.119, 64.227, 175.560, 0.000
0.667, 9.101, -4.080, 65.571, 176.175, 0.000
0.510, 8.669, -3.923, 65.473, 176.932, 0.000
0.667, 9.375, -3.177, 70.899, 176.146, 0.000
0.745, 9.689, -3.452, 69.974, 175.856, 0.000
0.118, 7.453, -4.197, 60.604, 179.212, 0.000
0.118, 8.944, -3.805, 66.943, 179.306, 0.000
0.000, 8.238, -5.099, 58.241, 180.000, 0.000
0.039, 7.963, -5.452, 55.599, 179.767, 0.000
0.314, 8.198, -5.413, 56.520, 178.170, 0.000
0.353, 7.885, -5.531, 54.896, 177.901, 0.000
0.275, 7.885, -5.688, 54.162, 178.382, 0.000
0.314, 8.316, -5.570, 56.143, 178.204, 0.000
-0.157, 7.375, -5.335, 54.106, -179.012, 0.000
0.235, 7.806, -4.943, 57.630, 178.541, 0.000
0.157, 8.198, -5.178, 57.712, 179.073, 0.000
0.157, 7.492, -5.256, 54.936, 179.018, 0.000
0.510, 8.512, -4.668, 61.117, 176.993, 0.000
0.628, 8.591, -5.099, 59.117, 176.405, 0.000
0.196, 8.826, -4.236, 64.335, 178.852, 0.000
0.471, 8.394, -4.590, 61.207, 177.183, 0.000
0.039, 8.630, -4.158, 64.273, 179.765, 0.000
0.118, 8.394, -4.629, 61.120, 179.297, 0.000
0.510, 9.218, -4.472, 63.976, 177.151, 0.000
0.157, 8.473, -3.962, 64.922, 179.039, 0.000
0.314, 8.826, -4.236, 64.298, 178.164, 0.000
0.235, 8.826, -4.236, 64.325, 178.623, 0.000
0.235, 8.787, -4.276, 64.018, 178.620, 0.000
0.039, 8.748, -4.511, 62.719, 179.772, 0.000
0.353, 9.022, -4.472, 63.564, 177.992, 0.000
0.314, 8.630, -4.158, 64.211, 178.124, 0.000
0.157, 8.630, -4.040, 64.895, 179.057, 0.000
1.059, 9.493, -5.374, 60.015, 174.454, 0.000
0.471, 9.022, -4.158, 65.118, 177.287, 0.000
0.431, 8.865, -3.766, 66.850, 177.435, 0.000
0.157, 8.787, -3.648, 67.434, 179.055, 0.000
0.275, 9.061, -3.648, 68.014, 178.390, 0.000
0.157, 9.022, -4.158, 65.241, 179.095, 0.000
0.392, 9.022, -3.962, 66.189, 177.720, 0.000
0.275, 9.218, -3.373, 69.838, 178.398, 0.000
0.235, 9.297, -3.844, 67.497, 178.660, 0.000
0.431, 8.826, -3.883, 66.121, 177.438, 0.000
0.196, 9.022, -3.648, 67.955, 178.845, 0.000
0.314, 8.983, -3.883, 66.552, 178.163, 0.000
0.353, 8.669, -3.570, 67.522, 177.843, 0.000
0.353, 8.865, -3.883, 66.257, 177.911, 0.000
0.235, 9.101, -4.315, 64.600, 178.661, 0.000
0.549, 9.532, -3.256, 70.894, 176.879, 0.000
0.392, 8.394, -3.334, 68.202, 177.513, 0.000
0.275, 8.983, -3.138, 70.675, 178.347, 0.000
0.628, 8.983, -3.217, 69.956, 176.237, 0.000
6.512, 6.315, -5.727, 36.065, 142.628, 0.000
0.078, 9.807, -3.256, 71.629, 179.565, 0.000
0.392, 8.904, -3.844, 66.541, 177.684, 0.000
0.314, 9.218, -3.609, 68.547, 178.184, 0.000
0.078, 9.454, -3.217, 71.204, 179.550, 0.000
0.510, 9.493, -2.157, 76.855, 177.001, 0.000
0.667, 9.611, -3.334, 70.516, 176.249, 0.000
0.078, 9.179, -3.020, 71.780, 179.535, 0.000
-0.118, 9.257, -2.550, 74.586, -179.298, 0.000
0.314, 9.101, -2.864, 72.435, 178.116, 0.000
0.549, 9.454, -3.020, 72.009, 176.833, 0.000
0.706, 8.983, -3.177, 70.083, 175.762, 0.000
0.785, 9.297, -3.060, 71.234, 175.417, 0.000
0.981, 9.454, -2.981, 71.635, 174.350, 0.000
0.824, 8.865, -3.883, 65.877, 175.135, 0.000
0.510, 8.865, -2.824, 72.061, 176.863, 0.000
0.706, 9.375, -3.060, 71.482, 175.905, 0.000
0.039, 8.591, -3.373, 68.559, 179.756, 0.000
0.510, 9.061, -2.903, 71.983, 176.932, 0.000
0.824, 9.493, -3.413, 69.704, 175.332, 0.000
0.667, 9.101, -3.609, 68.038, 176.103, 0.000
1.020, 9.493, -3.570, 68.641, 174.257, 0.000
-1.648, 8.551, -4.236, 62.007, -170.205, 0.000
-0.785, 8.277, -8.394, 44.471, -176.193, 0.000
-1.059, 0.471, -6.865, 3.877, -171.249, 0.000
-1.961, 0.235, -10.003, 1.323, -168.909, 0.000
-1.608, 0.275, -8.983, 1.723, -169.854, 0.000
-1.687, -0.078, -9.650, -0.459, -170.085, 0.000
4.590, -5.217, -9.297, -26.712, 156.707, 0.000
2.628, -3.648, -7.885, -23.699, 163.168, 0.000
1.608, 0.667, -8.198, 4.564, 168.937, 0.000
0.706, 6.394, -5.452, 49.308, 175.197, 0.000
6.982, -0.549, -11.023, -2.410, 147.680, 0.000
2.040, 1.687, -9.807, 9.559, 168.415, 0.000
1.569, 2.040, -8.708, 12.981, 170.050, 0.000
1.844, 1.020, -3.334, 14.986, 152.132, 0.000
0.941, 0.706, -9.336, 4.303, 174.258, 0.000
1.844, 1.138, -9.022, 7.042, 168.539, 0.000
1.765, 1.059, -8.904, 6.655, 168.864, 0.000
1.726, 1.138, -8.983, 7.089, 169.208, 0.000
1.726, 1.098, -8.944, 6.876, 169.157, 0.000
1.765, 1.098, -8.944, 6.870, 168.916, 0.000
1.804, 1.177, -8.904, 7.380, 168.641, 0.000
1.804, 1.177, -9.022, 7.289, 168.783, 0.000
1.726, 1.059, -8.904, 6.660, 169.105, 0.000
1.726, 1.177, -8.865, 7.424, 169.076, 0.000
1.804, 1.098, -8.983, 6.836, 168.724, 0.000
1.687, 1.098, -8.826, 6.969, 169.261, 0.000
1.765, 1.059, -8.983, 6.599, 168.957, 0.000
1.804, 1.020, -8.904, 6.405, 168.617, 0.000
1.726, 1.177, -8.865, 7.424, 169.076, 0.000
1.687, 1.138, -8.983, 7.095, 169.448, 0.000
1.765, 0.981, -8.826, 6.218, 168.757, 0.000
1.765, 1.059, -8.904, 6.655, 168.864, 0.000
1.687, 1.098, -8.944, 6.881, 169.398, 0.000
1.726, 1.059, -8.865, 6.688, 169.059, 0.000
1.765, 1.138, -8.904, 7.143, 168.875, 0.000
1.687, 1.138, -8.983, 7.095, 169.448, 0.000
1.687, 1.098, -8.944, 6.881, 169.398, 0.000
1.765, 1.098, -8.904, 6.899, 168.869, 0.000
1.765, 1.059, -8.944, 6.627, 168.911, 0.000
1.687, 1.138, -8.826, 7.215, 169.267, 0.000
1.726, 1.098, -9.022, 6.819, 169.247, 0.000
1.687, 1.098, -8.865, 6.939, 169.307, 0.000
1.648, 1.098, -8.904, 6.916, 169.595, 0.000
1.726, 1.098, -9.061, 6.790, 169.292, 0.000
1.804, 1.138, -9.061, 7.019, 168.823, 0.000
1.765, 1.098, -8.944, 6.870, 168.916, 0.000
1.726, 1.098, -8.944, 6.876, 169.157, 0.000
1.765, 1.059, -8.904, 6.655, 168.864, 0.000
1.726, 1.138, -8.944, 7.119, 169.162, 0.000
1.765, 1.059, -9.022, 6.572, 169.003, 0.000
1.765, 1.059, -8.944, 6.627, 168.911, 0.000
1.765, 1.098, -9.061, 6.785, 169.055, 0.000
1.726, 1.177, -8.944, 7.362, 169.168, 0.000
1.765, 0.981, -8.904, 6.166, 168.853, 0.000
1.804, 1.059, -8.983, 6.594, 168.718, 0.000
1.765, 1.098, -8.904, 6.899, 168.869, 0.000
1.765, 1.098, -8.983, 6.841, 168.963, 0.000
1.765, 1.098, -9.022, 6.813, 169.009, 0.000
1.765, 1.098, -9.022, 6.813, 169.009, 0.000
1.765, 1.098, -8.944, 6.870, 168.916, 0.000
1.804, 1.138, -8.865, 7.167, 168.586, 0.000
1.765, 1.098, -8.904, 6.899, 168.869, 0.000
1.765, 1.098, -8.983, 6.841, 168.963, 0.000
1.687, 1.059, -8.826, 6.722, 169.256, 0.000
1.687, 1.059, -8.865, 6.694, 169.302, 0.000
1.765, 1.098, -8.865, 6.928, 168.822, 0.000
1.726, 1.098, -8.904, 6.905, 169.111, 0.000
1.765, 1.098, -8.904, 6.899, 168.869, 0.000
1.765, 1.138, -8.944, 7.113, 168.922, 0.000
1.687, 1.098, -8.983, 6.852, 169.442, 0.000
1.687, 1.138, -8.865, 7.185, 169.313, 0.000
1.765, 1.098, -8.944, 6.870, 168.916, 0.000
1.765, 1.098, -8.983, 6.841, 168.963, 0.000
1.726, 1.138, -8.983, 7.089, 169.208, 0.000
1.726, 1.098, -8.944, 6.876, 169.157, 0.000
1.726, 1.059, -8.983, 6.605, 169.197, 0.000
1.726, 1.138, -9.022, 7.060, 169.253, 0.000
1.765, 1.138, -8.983, 7.083, 168.969, 0.000
1.844, 1.138, -8.865, 7.161, 168.345, 0.000
1.726, 1.138, -8.944, 7.119, 169.162, 0.000
1.765, 1.177, -8.865, 7.417, 168.834, 0.000
1.804, 1.177, -8.983, 7.319, 168.736, 0.000
1.765, 1.138, -8.904, 7.143, 168.875, 0.000
1.687, 1.098, -9.022, 6.824, 169.486, 0.000
1.804, 1.138, -8.944, 7.107, 168.682, 0.000
1.726, 1.098, -8.944, 6.876, 169.157, 0.000
1.765, 1.098, -8.904, 6.899, 168.869, 0.000
1.726, 1.177, -8.944, 7.362, 169.168, 0.000
1.765, 1.098, -8.944, 6.870, 168.916, 0.000
1.726, 1.177, -8.904, 7.392, 169.123, 0.000
1.804, 1.216, -8.944, 7.592, 168.695, 0.000
1.726, 1.059, -8.983, 6.605, 169.197, 0.000
1.726, 1.020, -8.904, 6.416, 169.100, 0.000
1.726, 1.138, -8.865, 7.179, 169.070, 0.000
1.765, 1.098, -8.944, 6.870, 168.916, 0.000
1.726, 1.059, -8.826, 6.717, 169.012, 0.000
1.726, 1.059, -8.904, 6.660, 169.105, 0.000
1.687, 1.138, -8.983, 7.095, 169.448, 0.000
1.687, 1.138, -8.865, 7.185, 169.313, 0.000
1.726, 1.059, -8.944, 6.632, 169.151, 0.000
1.765, 1.138, -8.787, 7.234, 168.732, 0.000
1.687, 1.138, -8.983, 7.095, 169.448, 0.000
1.726, 1.020, -8.983, 6.362, 169.192, 0.000
1.765, 0.941, -8.787, 5.997, 168.704, 0.000
1.726, 1.059, -8.983, 6.605, 169.197, 0.000
1.765, 1.059, -8.904, 6.655, 168.864, 0.000
1.726, 1.138, -8.904, 7.149, 169.117, 0.000
1.726, 1.098, -8.865, 6.934, 169.064, 0.000
1.804, 1.138, -8.904, 7.137, 168.634, 0.000
1.765, 1.138, -9.022, 7.054, 169.015, 0.000
1.687, 1.177, -8.983, 7.337, 169.453, 0.000
1.844, 1.098, -8.826, 6.945, 168.289, 0.000
1.726, 1.138, -9.022, 7.060, 169.253, 0.000
1.765, 1.098, -8.983, 6.841, 168.963, 0.000
1.765, 1.098, -8.983, 6.841, 168.963, 0.000
1.765, 1.098, -8.904, 6.899, 168.869, 0.000
1.687, 1.138, -8.983, 7.095, 169.448, 0.000
1.726, 1.138, -9.022, 7.060, 169.253, 0.000
1.765, 1.138, -9.022, 7.054, 169.015, 0.000
1.765, 0.981, -8.904, 6.166, 168.853, 0.000
1.726, 1.098, -8.983, 6.847, 169.202, 0.000
1.648, 1.059, -8.904, 6.671, 169.589, 0.000
1.765, 1.138, -8.865, 7.173, 168.828, 0.000
1.726, 1.138, -8.944, 7.119, 169.162, 0.000
1.765, 1.059, -8.983, 6.599, 168.957, 0.000
1.804, 1.059, -8.944, 6.621, 168.671, 0.000
1.687, 1.098, -8.904, 6.910, 169.353, 0.000
1.726, 1.138, -8.944, 7.119, 169.162, 0.000
1.765, 1.138, -8.983, 7.083, 168.969, 0.000
1.765, 1.098, -8.983, 6.841, 168.963, 0.000
1.765, 1.177, -9.022, 7.295, 169.021, 0.000
1.804, 1.059, -8.983, 6.594, 168.718, 0.000
1.765, 1.098, -9.022, 6.813, 169.009, 0.000
1.765, 1.098, -8.904, 6.899, 168.869, 0.000
1.804, 1.177, -8.944, 7.349, 168.688, 0.000
1.726, 1.098, -9.022, 6.819, 169.247, 0.000
1.765, 1.098, -8.904, 6.899, 168.869, 0.000
1.687, 1.138, -8.904, 7.154, 169.358, 0.000
1.726, 1.138, -8.944, 7.119, 169.162, 0.000
1.726, 1.098, -8.904, 6.905, 169.111, 0.000
1.765, 1.138, -8.904, 7.143, 168.875, 0.000
1.765, 1.138, -8.983, 7.083, 168.969, 0.000
1.648, 1.098, -8.865, 6.945, 169.550, 0.000
1.687, 1.098, -8.904, 6.910, 169.353, 0.000
1.726, 0.981, -8.944, 6.145, 169.141, 0.000
1.765, 1.177, -8.904, 7.386, 168.881, 0.000
1.648, 1.138, -9.061, 7.041, 169.774, 0.000
1.765, 1.138, -8.983, 7.083, 168.969, 0.000
1.765, 1.059, -8.865, 6.683, 168.816, 0.000
1.687, 1.098, -8.904, 6.910, 169.353, 0.000
1.804, 1.177, -8.983, 7.319, 168.736, 0.000
0.000, 3.060, -6.315, 25.849, 180.000, 0.000
2.667, 1.726, -16.122, 6.029, 170.658, 0.000
0.628, -6.943, -14.671, -25.306, 177.786, 0.000
1.177, -6.119, -6.080, -44.657, 172.232, 0.000
0.157, -6.629, -2.040, -72.850, 178.704, 0.000
-1.765, -10.748, -4.276, -66.714, -171.323, 0.000
-4.001, -13.494, -6.002, -61.874, -164.841, 0.000
-4.943, 1.608, -1.648, 17.155, -114.977, 0.000
-4.825, -1.804, -14.122, -6.894, -161.278, 0.000
-4.080, 7.688, -2.942, 56.807, -153.638, 0.000
8.002, 4.982, 2.707, 30.529, 54.682, 0.000
9.493, 3.805, 2.079, 21.383, 65.451, 0.000
8.865, 5.335, 1.608, 30.630, 57.850, 0.000
9.218, 7.453, 1.569, 38.556, 50.435, 0.000
5.413, 7.139, 0.235, 52.803, 37.156, 0.000
7.296, 6.237, 1.491, 39.947, 48.687, 0.000
7.767, 5.570, 1.883, 34.876, 52.873, 0.000
8.316, 5.492, 0.902, 33.286, 56.208, 0.000
8.787, 4.590, 0.981, 27.434, 61.893, 0.000
9.022, 3.923, 1.294, 23.286, 65.400, 0.000
9.061, 3.805, 1.726, 22.416, 65.246, 0.000
9.454, 3.217, 2.040, 18.397, 68.056, 0.000
8.944, 3.138, 2.197, 18.817, 66.815, 0.000
9.022, 2.785, 2.746, 16.453, 66.563, 0.000
9.101, 3.648, 2.197, 21.289, 64.924, 0.000
9.140, 3.491, 2.393, 20.280, 65.152, 0.000
9.257, 2.981, 2.550, 17.248, 67.035, 0.000
9.532, 3.295, 2.707, 18.394, 65.899, 0.000
9.179, 2.432, 2.746, 14.243, 68.218, 0.000
9.218, 3.020, 2.393, 17.596, 67.314, 0.000
9.101, 2.393, 2.785, 14.113, 68.027, 0.000
9.140, 2.001, 2.628, 11.880, 70.131, 0.000
9.297, 2.707, 2.079, 15.861, 69.841, 0.000
9.140, 2.628, 2.785, 15.380, 67.267, 0.000
9.101, 2.471, 2.864, 14.522, 67.431, 0.000
9.375, 2.628, 3.452, 14.739, 65.167, 0.000
9.140, 2.393, 3.334, 13.818, 65.819, 0.000
9.179, 2.471, 2.824, 14.431, 67.763, 0.000
9.297, 2.393, 2.824, 13.835, 68.289, 0.000
9.257, 2.471, 3.334, 14.099, 65.853, 0.000
9.297, 2.550, 3.177, 14.549, 66.337, 0.000
8.748, 1.922, 3.177, 11.669, 66.998, 0.000
9.611, 1.569, 2.707, 8.931, 71.968, 0.000
11.454, 4.943, 2.040, 23.017, 64.976, 0.000
5.570, 5.413, 1.844, 42.695, 44.247, 0.000
4.433, 7.335, 1.216, 57.929, 30.801, 0.000
3.295, 7.061, -0.824, 64.311, 155.131, 0.000
8.787, 3.256, -3.570, 18.947, 118.804, 0.000
6.041, 4.864, -4.354, 33.153, 137.220, 0.000
6.590, 5.021, -5.609, 30.122, 138.802, 0.000
5.492, 4.472, -4.982, 31.094, 140.637, 0.000
6.394, 4.433, -5.570, 27.597, 138.070, 0.000
6.080, 3.962, -5.492, 25.807, 138.080, 0.000
6.276, 4.119, -5.806, 25.723, 138.597, 0.000
7.257, 2.628, -6.904, 14.702, 135.510, 0.000
3.727, -2.432, -5.531, -20.035, 148.335, 0.000
5.413, 3.099, -8.081, 17.672, 147.975, 0.000
4.668, 3.060, -7.649, 18.852, 150.464, 0.000
5.256, 2.432, -8.630, 13.533, 149.619, 0.000
3.452, 2.903, -7.806, 18.783, 157.487, 0.000
4.315, 2.236, -7.375, 14.665, 150.754, 0.000
3.609, 3.020, -7.649, 19.653, 156.307, 0.000
4.315, 2.667, -7.492, 17.146, 151.518, 0.000
4.315, 2.550, -7.610, 16.249, 151.736, 0.000
4.629, 2.864, -7.610, 17.822, 150.348, 0.000
4.080, 3.256, -7.571, 20.736, 153.663, 0.000
4.786, 3.334, -7.767, 20.077, 150.482, 0.000
4.825, 3.373, -7.492, 20.735, 149.579, 0.000
4.629, 3.256, -7.610, 20.079, 150.785, 0.000
4.276, 3.138, -7.610, 19.774, 152.552, 0.000
4.315, 3.256, -7.571, 20.487, 152.364, 0.000
4.472, 3.334, -7.649, 20.622, 151.812, 0.000
4.080, 3.217, -7.296, 21.046, 152.905, 0.000
5.021, 3.570, -7.767, 21.105, 149.570, 0.000
4.550, 3.256, -7.532, 20.305, 150.989, 0.000
4.276, 3.413, -7.532, 21.507, 152.657, 0.000
4.276, 2.903, -7.767, 18.129, 152.721, 0.000
3.883, 3.923, -7.296, 25.389, 154.883, 0.000
4.511, 3.491, -7.492, 21.762, 151.376, 0.000
3.923, 3.491, -7.375, 22.683, 154.323, 0.000
4.119, 3.687, -7.375, 23.583, 153.456, 0.000
4.393, 3.256, -7.649, 20.259, 152.145, 0.000
4.236, 3.687, -7.610, 22.946, 153.390, 0.000
4.119, 2.432, -7.885, 15.291, 153.473, 0.000
4.040, 2.589, -7.963, 16.169, 154.241, 0.000
4.080, 3.217, -7.728, 20.209, 154.016, 0.000
4.040, 3.217, -7.492, 20.700, 153.640, 0.000
3.727, 2.981, -7.571, 19.458, 155.392, 0.000
3.844, 3.256, -7.728, 20.668, 155.372, 0.000
4.001, 3.373, -7.767, 21.113, 154.709, 0.000
4.236, 3.217, -7.806, 19.908, 153.353, 0.000
4.158, 3.413, -8.002, 20.728, 154.454, 0.000
3.373, 3.060, -8.081, 19.260, 158.673, 0.000
3.648, 3.334, -7.571, 21.641, 156.203, 0.000
3.727, 3.217, -7.610, 20.787, 155.722, 0.000
4.001, 2.942, -7.610, 18.890, 153.877, 0.000
4.158, 3.177, -7.649, 20.050, 153.343, 0.000
4.080, 3.217, -7.453, 20.735, 153.318, 0.000
4.511, 3.138, -7.688, 19.394, 151.488, 0.000
3.844, 4.001, -7.845, 24.607, 156.418, 0.000
4.393, 2.903, -8.120, 17.454, 153.002, 0.000
4.511, 3.570, -7.610, 21.974, 151.779, 0.000
3.491, 2.903, -7.414, 19.505, 156.323, 0.000
4.236, 3.099, -7.767, 19.304, 153.132, 0.000
4.080, 3.373, -7.532, 21.497, 153.695, 0.000
4.001, 2.785, -7.649, 17.881, 153.825, 0.000
3.844, 2.864, -7.963, 17.944, 155.569, 0.000
4.080, 3.177, -7.649, 20.129, 153.778, 0.000
4.550, 2.785, -7.885, 17.011, 151.447, 0.000
4.590, 3.923, -7.296, 24.470, 151.012, 0.000
4.354, 3.883, -7.453, 24.223, 152.611, 0.000
4.080, 3.962, -7.296, 25.359, 153.832, 0.000
4.315, 4.001, -7.296, 25.268, 152.591, 0.000
3.844, 3.687, -7.218, 24.271, 154.625, 0.000
3.727, 4.080, -7.571, 25.802, 156.572, 0.000
4.119, 4.276, -7.453, 26.662, 154.389, 0.000
4.472, 4.236, -7.571, 25.725, 152.731, 0.000
3.570, 3.177, -7.688, 20.548, 156.776, 0.000
3.727, 3.609, -7.453, 23.417, 155.771, 0.000
3.883, 3.570, -7.532, 22.844, 155.017, 0.000
4.315, 3.962, -7.649, 24.281, 153.394, 0.000
4.982, 3.883, -7.649, 23.046, 149.855, 0.000
3.883, 3.413, -7.728, 21.534, 155.312, 0.000
4.315, 2.746, -8.120, 16.627, 153.279, 0.000
4.080, -0.785, -8.394, -4.805, 154.179, 0.000
3.570, -0.157, -8.041, -1.022, 156.067, 0.000
2.785, 2.903, -8.238, 18.460, 162.314, 0.000
3.138, 0.667, -7.845, 4.512, 158.270, 0.000
5.021, 2.001, -10.709, 9.600, 155.255, 0.000
0.981, 3.805, -2.236, 57.313, 167.472, 0.000
4.746, 4.354, -3.844, 35.484, 140.745, 0.000
5.060, 6.512, -3.217, 47.361, 145.134, 0.000
5.413, 8.669, 2.040, 56.285, 31.293, 0.000
4.472, 8.159, 3.844, 54.142, 26.372, 0.000
3.883, 8.002, 5.609, 49.550, 21.672, 0.000
4.472, 8.826, 4.943, 52.940, 23.849, 0.000
5.374, 8.669, 4.864, 50.100, 28.397, 0.000
6.669, 6.629, 6.512, 35.423, 35.664, 0.000
5.570, 2.550, 6.119, 17.126, 40.038, 0.000
8.708, 2.197, 7.218, 10.991, 49.095, 0.000
4.354, 2.393, 6.276, 17.393, 32.953, 0.000
4.315, 6.276, 2.942, 50.236, 31.902, 0.000
4.943, 12.043, 1.177, 67.125, 22.219, 0.000
2.707, 16.279, 3.962, 73.577, 9.177, 0.000
1.726, 17.417, 6.982, 67.561, 5.255, 0.000
2.197, -0.392, 4.315, -4.632, 26.885, 0.000
1.294, 3.177, 2.432, 49.071, 17.927, 0.000
2.667, 1.804, 9.022, 10.857, 16.167, 0.000
-0.392, 5.845, 11.376, 27.180, -1.757, 0.000
0.628, 2.040, 7.453, 15.255, 4.644, 0.000
-1.530, 4.158, 9.807, 22.730, -8.173, 0.000
-1.138, 3.923, 10.434, 20.492, -5.827, 0.000
-1.608, 3.923, 9.924, 21.314, -8.571, 0.000
-0.981, 5.256, 9.689, 28.358, -5.084, 0.000
-0.471, 4.668, 8.708, 28.158, -2.728, 0.000
-1.608, 5.688, 8.277, 34.003, -9.098, 0.000
-1.138, 3.452, 9.375, 20.078, -6.496, 0.000
-1.804, 3.609, 10.120, 19.344, -9.533, 0.000
-1.020, 3.883, 10.630, 19.983, -5.149, 0.000
-1.491, 4.119, 9.101, 24.067, -8.487, 0.000
-0.981, 3.452, 10.474, 18.167, -5.082, 0.000
-1.726, 3.923, 9.689, 21.731, -9.376, 0.000
-0.235, 4.746, 9.218, 27.236, -1.300, 0.000
-0.353, 3.609, 8.865, 22.134, -2.112, 0.000
0.471, 5.492, 8.630, 32.433, 2.635, 0.000
0.588, 4.629, 8.238, 29.270, 3.563, 0.000
0.314, 7.022, 8.434, 39.760, 1.638, 0.000
-0.392, 6.904, 8.277, 39.801, -2.084, 0.000
3.452, 9.140, 7.414, 48.179, 16.347, 0.000
0.118, 5.256, 8.591, 31.459, 0.669, 0.000
-0.157, 4.943, 9.022, 28.711, -0.874, 0.000
-2.354, 5.766, 9.728, 29.947, -11.757, 0.000
-1.726, 5.256, 9.179, 29.370, -9.267, 0.000
-0.902, 5.609, 8.904, 32.077, -4.900, 0.000
-1.883, 1.491, 9.807, 8.490, -10.748, 0.000
-1.255, -0.471, 6.041, -4.363, -11.704, 0.000
0.431, 3.099, 8.630, 19.730, 2.694, 0.000
3.452, 15.102, 4.080, 70.513, 12.444, 0.000
1.255, 2.236, -0.981, 54.533, 152.791, 0.000
4.903, 9.297, 0.196, 62.173, 27.803, 0.000
-0.981, 9.807, -0.667, 83.105, -174.302, 0.000
-0.157, 7.885, 2.079, 75.188, -1.102, 0.000
-0.941, 8.551, 1.451, 78.563, -6.195, 0.000
-6.394, 14.828, 1.608, 66.028, -23.205, 0.000
-1.098, 4.550, -0.981, 72.069, -166.723, 0.000
-1.020, 9.571, -2.628, 73.588, -174.133, 0.000
-2.511, 12.003, -6.276, 60.614, -169.500, 0.000
-1.569, 6.002, -2.432, 64.255, -166.380, 0.000
-2.275, 9.493, -2.118, 71.868, -166.834, 0.000
-2.471, 10.003, -4.197, 64.037, -167.166, 0.000
-3.217, 8.238, -4.550, 55.923, -161.130, 0.000
-2.628, 8.198, -3.883, 60.232, -163.843, 0.000
-3.530, 8.669, -2.981, 61.942, -158.938, 0.000
-0.431, 7.139, -3.687, 62.525, -176.926, 0.000
0.431, 7.767, -3.020, 68.553, 177.036, 0.000
-1.098, 11.925, -3.217, 74.091, -174.918, 0.000
0.196, 9.375, -0.353, 87.533, 178.802, 0.000
-1.961, 7.218, 1.687, 70.282, -14.821, 0.000
3.256, 10.474, 6.119, 56.503, 15.024, 0.000
2.511, 5.099, 9.414, 27.627, 13.196, 0.000
3.177, 5.688, 11.336, 25.786, 14.064, 0.000
0.785, 0.118, 9.061, 0.741, 4.948, 0.000
2.197, -0.941, 9.885, -5.312, 12.474, 0.000
0.275, -2.236, 9.257, -13.573, 1.651, 0.000
-0.785, -3.020, 9.964, -16.816, -4.309, 0.000
-1.177, -2.824, 10.238, -15.326, -6.323, 0.000
-0.235, -2.197, 9.807, -12.622, -1.342, 0.000
-0.039, -0.628, 10.395, -3.455, -0.216, 0.000
-0.941, -1.451, 9.885, -8.316, -5.383, 0.000
-1.648, -0.235, 10.356, -1.286, -9.037, 0.000
-4.236, -1.608, 11.376, -7.547, -20.241, 0.000
-0.471, 3.177, 12.513, 14.238, -2.088, 0.000
-4.511, 9.493, 10.120, 40.588, -18.009, 0.000
-4.746, 13.415, 3.060, 67.172, -19.032, 0.000
-2.746, 6.708, 6.669, 42.926, -16.188, 0.000
-4.236, 9.101, 5.217, 53.555, -21.992, 0.000
-6.786, 10.670, 3.687, 54.101, -31.012, 0.000
-2.981, 8.434, 3.020, 63.288, -18.407, 0.000
-1.412, 8.787, 4.707, 60.782, -8.063, 0.000
-3.177, 8.473, 3.962, 59.062, -18.763, 0.000
-3.609, 8.748, 4.315, 57.257, -20.304, 0.000
-3.256, 8.983, 4.982, 56.475, -17.587, 0.000
-3.177, 7.100, 4.001, 54.261, -21.299, 0.000
-3.491, 9.571, 3.609, 62.318, -18.845, 0.000
-3.334, 7.571, 1.451, 64.344, -23.390, 0.000
-3.373, 7.924, 4.315, 55.347, -20.501, 0.000
-5.139, 10.787, 3.060, 60.996, -24.621, 0.000
-2.903, 5.570, 10.317, 27.463, -13.906, 0.000
-3.805, 4.943, 5.452, 36.626, -27.340, 0.000
2.667, 5.413, 7.414, 34.491, 16.203, 0.000
-0.353, 9.650, 2.785, 73.779, -2.013, 0.000
-1.608, 9.101, 3.138, 68.820, -9.485, 0.000
-1.216, 9.140, 3.883, 66.000, -6.981, 0.000
-1.177, 9.650, 4.276, 65.318, -6.362, 0.000
-1.098, 8.826, 3.413, 67.893, -6.621, 0.000
-1.412, 9.650, 4.276, 64.985, -7.621, 0.000
-1.883, 9.179, 4.040, 64.098, -10.633, 0.000
-2.001, 9.454, 4.236, 63.638, -10.930, 0.000
-2.511, 10.670, 4.472, 64.329, -12.244, 0.000
-1.883, 8.708, -1.608, 74.127, -167.996, 0.000
-0.785, 9.061, -0.902, 82.483, -175.076, 0.000
0.392, 9.454, -0.118, 87.519, 177.624, 0.000
0.471, 9.924, 0.471, 86.163, 2.713, 0.000
-3.060, 11.768, 0.314, 75.353, -14.569, 0.000
-3.334, 10.120, 3.295, 65.147, -17.394, 0.000
-3.099, 8.748, 2.550, 65.356, -18.784, 0.000
-3.687, 9.414, 0.392, 68.502, -21.372, 0.000
-0.745, 8.355, 2.471, 72.832, -4.889, 0.000
-0.471, 8.669, 1.569, 79.299, -3.058, 0.000
-2.628, 10.199, 1.216, 74.149, -14.353, 0.000
-3.491, 11.062, 1.294, 71.397, -17.404, 0.000
-2.118, 9.532, 0.196, 77.419, -12.526, 0.000
-2.511, 9.257, 4.668, 60.207, -13.612, 0.000
0.981, 7.688, 6.943, 47.634, 5.408, 0.000
1.883, 6.982, 7.571, 41.829, 10.360, 0.000
2.197, 6.433, 7.139, 40.737, 12.876, 0.000
2.275, 6.747, 7.257, 41.578, 12.931, 0.000
2.511, 6.276, 8.277, 35.966, 13.587, 0.000
2.550, 5.649, 8.630, 32.117, 13.886, 0.000
3.687, 4.825, 9.022, 26.337, 19.819, 0.000
10.042, 1.098, 8.904, 4.678, 48.221, 0.000
2.981, 1.373, 8.041, 9.095, 20.075, 0.000
5.021, 2.511, 8.120, 14.733, 30.573, 0.000
4.825, 2.903, 9.414, 15.344, 26.093, 0.000
4.276, 3.373, 10.081, 17.122, 21.910, 0.000
2.864, 3.413, 8.277, 21.289, 17.737, 0.000
4.040, 1.922, 9.375, 10.663, 22.889, 0.000
5.139, 1.138, 9.807, 5.866, 27.497, 0.000
4.354, 1.373, 9.375, 7.566, 24.680, 0.000
4.315, 0.981, 8.748, 5.741, 26.114, 0.000
4.550, 0.941, 9.767, 4.993, 24.878, 0.000
3.530, 0.078, 9.061, 0.462, 21.286, 0.000
3.099, 0.863, 10.866, 4.368, 15.871, 0.000
2.667, -0.314, 9.257, -1.866, 16.065, 0.000
2.314, -0.118, 10.003, -0.657, 13.027, 0.000
2.667, -0.078, 10.317, -0.422, 14.496, 0.000
4.982, 2.001, 11.572, 9.023, 22.987, 0.000
4.943, 1.412, 7.139, 9.237, 34.182, 0.000
2.236, -0.353, 9.493, -2.073, 13.245, 0.000
1.294, -0.706, 9.924, -4.035, 7.413, 0.000
0.510, -0.510, 10.199, -2.859, 2.859, 0.000
-1.216, 1.687, 9.454, 10.035, -7.217, 0.000
-3.766, 4.550, 10.905, 21.525, -17.677, 0.000
-1.648, 3.373, 6.590, 26.410, -12.546, 0.000
-0.824, 5.021, 8.826, 29.528, -4.638, 0.000
-1.373, 3.727, 12.553, 16.442, -5.986, 0.000
4.982, 1.216, 12.239, 5.258, 22.051, 0.000
8.041, 2.511, 7.296, 13.019, 46.183, 0.000
8.944, 0.785, 5.688, 4.233, 57.300, 0.000
10.003, 1.020, 3.570, 5.485, 69.638, 0.000
8.708, -0.667, 3.138, -4.121, 69.776, 0.000
9.022, -0.039, 3.334, -0.234, 69.716, 0.000
8.865, -0.118, 4.786, -0.669, 61.632, 0.000
8.826, 0.314, 5.296, 1.746, 58.992, 0.000
8.904, 0.785, 5.413, 4.305, 58.438, 0.000
8.002, 0.706, 5.413, 4.180, 55.698, 0.000
8.708, 0.824, 5.766, 4.510, 56.222, 0.000
8.512, 0.863, 5.413, 4.890, 57.219, 0.000
8.120, 0.863, 5.609, 4.997, 55.048, 0.000
8.198, 0.785, 5.492, 4.546, 55.915, 0.000
8.159, 0.941, 5.492, 5.468, 55.671, 0.000
8.041, 0.902, 5.649, 5.246, 54.574, 0.000
8.787, 1.098, 5.962, 5.905, 55.395, 0.000
7.375, 0.785, 5.374, 4.914, 53.630, 0.000
8.630, 0.628, 6.041, 3.410, 54.863, 0.000
8.159, 0.706, 5.766, 4.042, 54.549, 0.000
8.473, 0.471, 6.119, 2.579, 54.082, 0.000
8.434, 0.706, 6.119, 3.877, 53.856, 0.000
8.120, 0.667, 5.923, 3.796, 53.718, 0.000
8.394, 0.667, 5.766, 3.746, 55.336, 0.000
8.041, 0.706, 5.766, 4.081, 54.155, 0.000
8.316, 0.588, 5.688, 3.342, 55.487, 0.000
8.238, 0.628, 5.766, 3.572, 54.849, 0.000
8.198, 0.785, 5.649, 4.506, 55.177, 0.000
8.316, 0.628, 5.845, 3.533, 54.745, 0.000
8.944, 0.981, 6.237, 5.139, 54.780, 0.000
8.002, 0.314, 5.923, 1.805, 53.453, 0.000
8.708, 0.353, 6.629, 1.848, 52.680, 0.000
7.061, 0.628, 5.766, 3.938, 50.597, 0.000
7.728, 0.314, 5.217, 1.928, 55.928, 0.000
8.434, 0.078, 5.649, 0.443, 56.185, 0.000
8.394, -0.353, 6.041, -1.955, 54.214, 0.000
8.159, 0.039, 6.119, 0.220, 53.130, 0.000
7.885, 0.196, 6.119, 1.126, 52.170, 0.000
7.963, 0.628, 6.237, 3.551, 51.790, 0.000
8.198, 0.941, 6.041, 5.282, 53.287, 0.000
8.002, 0.981, 6.080, 5.573, 52.417, 0.000
8.277, 1.765, 6.080, 9.753, 52.587, 0.000
7.571, 2.001, 6.433, 11.385, 48.335, 0.000
7.178, 1.961, 6.865, 11.170, 45.157, 0.000
7.296, 2.511, 6.629, 14.288, 45.826, 0.000
7.414, 2.785, 6.747, 15.527, 45.446, 0.000
6.786, 2.785, 6.982, 15.962, 42.074, 0.000
2.079, 6.472, 7.492, 39.775, 11.859, 0.000
8.041, 1.961, 7.139, 10.337, 47.364, 0.000
4.746, 3.962, 7.414, 24.231, 29.451, 0.000
5.217, 4.315, 6.982, 26.338, 32.441, 0.000
5.335, 4.040, 7.335, 24.011, 32.498, 0.000
5.688, 4.393, 8.002, 24.108, 31.925, 0.000
5.884, 4.040, 7.414, 23.116, 34.872, 0.000
5.923, 4.472, 8.002, 24.188, 32.868, 0.000
5.884, 4.001, 7.688, 22.454, 34.172, 0.000
5.806, 3.648, 7.806, 20.556, 33.971, 0.000
6.551, 2.746, 7.610, 15.294, 38.998, 0.000
6.825, 2.236, 7.139, 12.755, 42.376, 0.000
6.669, 1.569, 6.551, 9.528, 44.711, 0.000
6.786, 1.255, 6.629, 7.537, 45.166, 0.000
7.257, 1.569, 6.982, 8.856, 45.399, 0.000
7.375, 1.569, 7.257, 8.623, 44.806, 0.000
6.865, 1.412, 6.786, 8.323, 44.722, 0.000
6.786, 1.726, 6.708, 10.253, 44.415, 0.000
5.492, 1.491, 5.256, 11.094, 45.147, 0.000
6.786, 3.452, 7.257, 19.159, 40.180, 0.000
6.629, 3.883, 7.414, 21.329, 38.382, 0.000
4.590, 5.178, 7.139, 31.387, 27.492, 0.000
3.609, 7.257, 8.473, 38.238, 17.926, 0.000
2.040, 7.257, 7.885, 41.703, 10.777, 0.000
1.451, 6.982, 8.198, 39.984, 7.676, 0.000
1.177, 6.080, 8.081, 36.670, 6.638, 0.000
0.981, 6.315, 8.041, 37.940, 5.478, 0.000
1.687, 6.825, 8.041, 39.717, 9.086, 0.000
1.294, 6.982, 8.002, 40.740, 6.949, 0.000
1.608, 5.806, 8.669, 33.363, 8.763, 0.000
1.608, 5.609, 8.277, 33.635, 9.138, 0.000
1.294, 5.296, 8.277, 32.298, 7.505, 0.000
1.569, 5.099, 9.179, 28.706, 8.499, 0.000
1.530, 5.178, 8.708, 30.354, 8.587, 0.000
1.648, 5.806, 9.414, 31.276, 8.472, 0.000
2.824, 4.746, 7.806, 29.759, 17.179, 0.000
0.745, 4.158, 8.002, 27.356, 4.725, 0.000
0.628, 3.570, 10.003, 19.604, 3.382, 0.000
1.373, 3.413, 10.199, 18.347, 7.275, 0.000
1.804, 4.040, 9.454, 22.773, 9.955, 0.000
4.393, 3.648, 9.218, 19.659, 23.901, 0.000
5.217, 4.825, 7.414, 28.023, 30.532, 0.000
7.375, 7.414, 4.590, 40.482, 40.223, 0.000
4.511, 5.374, 7.100, 32.573, 26.867, 0.000
5.374, 6.629, 4.119, 44.395, 34.550, 0.000
1.138, -7.022, 20.006, -19.311, 3.071, 0.000
10.238, 4.197, -8.983, 17.127, 134.082, 0.000
7.218, 6.119, 2.824, 38.292, 46.962, 0.000
6.982, 6.315, 3.609, 38.782, 43.829, 0.000
7.924, 6.747, 3.256, 38.224, 46.606, 0.000
6.237, 6.472, 2.393, 44.094, 42.109, 0.000
7.688, 6.708, 3.648, 38.246, 45.197, 0.000
7.845, 6.433, 4.276, 35.754, 45.445, 0.000
6.237, 6.159, 2.550, 42.427, 43.098, 0.000
7.728, 6.825, 4.197, 37.817, 43.962, 0.000
6.629, 6.669, 3.883, 40.957, 40.665, 0.000
8.159, 6.315, 3.060, 35.933, 49.301, 0.000
4.746, -8.748, 9.493, -39.495, 20.188, 0.000
7.688, 6.002, 1.216, 37.633, 51.464, 0.000
6.315, 5.766, -0.510, 42.305, 132.509, 0.000
7.688, 5.884, 1.844, 36.657, 51.271, 0.000
1.255, 4.668, 5.296, 40.620, 10.083, 0.000
1.844, 12.631, 7.688, 57.955, 7.107, 0.000
-3.452, 6.041, 8.277, 33.965, -18.618, 0.000
-4.393, 2.785, 7.963, 17.027, -27.510, 0.000
-0.118, 0.196, 10.787, 1.042, -0.625, 0.000
-1.451, -0.745, 10.356, -4.077, -7.958, 0.000
-1.373, -0.588, 10.277, -3.248, -7.597, 0.000
-1.451, -0.745, 10.317, -4.092, -7.988, 0.000
-1.648, -0.667, 10.081, -3.735, -9.262, 0.000
-1.451, -0.667, 10.395, -3.635, -7.932, 0.000
-1.412, -0.667, 10.277, -3.678, -7.807, 0.000
-1.412, -0.706, 10.395, -3.851, -7.719, 0.000
-1.491, -0.706, 10.317, -3.875, -8.203, 0.000
-1.334, -0.667, 10.474, -3.614, -7.243, 0.000
-1.334, -0.628, 10.238, -3.479, -7.408, 0.000
-1.412, -0.667, 10.395, -3.637, -7.721, 0.000
-1.412, -0.588, 10.317, -3.234, -7.782, 0.000
-1.412, -0.706, 10.356, -3.865, -7.747, 0.000
-1.530, -0.706, 10.317, -3.873, -8.415, 0.000
-1.451, -0.667, 10.356, -3.649, -7.962, 0.000
-1.412, -0.667, 10.356, -3.651, -7.749, 0.000
-1.530, -0.745, 10.356, -4.072, -8.382, 0.000
-1.334, -0.667, 10.395, -3.641, -7.296, 0.000
-1.373, -0.706, 10.356, -3.867, -7.535, 0.000
-1.373, -0.628, 10.356, -3.438, -7.538, 0.000
-1.412, -0.667, 10.356, -3.651, -7.749, 0.000
-1.334, -0.628, 10.317, -3.453, -7.353, 0.000
-1.412, -0.706, 10.277, -3.894, -7.806, 0.000
-1.412, -0.667, 10.356, -3.651, -7.749, 0.000
-1.294, -0.745, 10.356, -4.085, -7.107, 0.000
-1.412, -0.667, 10.277, -3.678, -7.807, 0.000
-1.412, -0.667, 10.238, -3.692, -7.837, 0.000
-1.373, -0.667, 10.317, -3.666, -7.565, 0.000
-1.412, -0.628, 10.277, -3.462, -7.809, 0.000
-1.412, -0.667, 10.317, -3.664, -7.778, 0.000
-1.373, -0.706, 10.395, -3.852, -7.507, 0.000
-1.334, -0.745, 10.395, -4.068, -7.293, 0.000
-1.373, -0.745, 10.317, -4.096, -7.561, 0.000
-1.373, -0.706, 10.317, -3.881, -7.563, 0.000
-1.373, -0.706, 10.317, -3.881, -7.563, 0.000
-1.334, -0.706, 10.238, -3.912, -7.405, 0.000
-1.334, -0.588, 10.356, -3.225, -7.327, 0.000
-1.373, -0.745, 10.277, -4.111, -7.589, 0.000
-1.451, -0.667, 10.277, -3.676, -8.022, 0.000
-1.412, -0.628, 10.395, -3.424, -7.722, 0.000
-1.412, -0.706, 10.317, -3.879, -7.776, 0.000
-1.373, -0.706, 10.395, -3.852, -7.507, 0.000
-1.373, -0.667, 10.356, -3.653, -7.537, 0.000
-1.373, -0.667, 10.356, -3.653, -7.537, 0.000
-1.373, -0.706, 10.356, -3.867, -7.535, 0.000
-1.451, -0.628, 10.395, -3.422, -7.934, 0.000
-1.334, -0.706, 10.356, -3.869, -7.322, 0.000
-1.412, -0.667, 10.395, -3.637, -7.721, 0.000
-1.373, -0.745, 10.356, -4.081, -7.533, 0.000
-1.020, -0.471, 10.513, -2.552, -5.536, 0.000
2.393, 5.256, 9.414, 28.419, 12.512, 0.000
-3.805, 5.806, 3.844, 47.026, -28.655, 0.000
-2.981, 5.060, -3.452, 47.970, -154.048, 0.000
0.353, 3.687, -9.924, 20.370, 178.090, 0.000
-2.157, 7.728, -4.315, 58.024, -166.301, 0.000
-0.392, 7.610, -0.706, 83.941, -177.062, 0.000
-0.235, 6.904, 7.022, 44.500, -1.369, 0.000
-1.334, 5.570, 9.767, 29.468, -6.764, 0.000
-0.392, 2.040, 7.728, 14.768, -2.810, 0.000
-1.922, 3.766, 9.846, 20.575, -10.334, 0.000
-5.296, -0.118, 11.376, -0.537, -24.962, 0.000
3.413, 12.709, 7.610, 56.726, 12.973, 0.000
3.923, 8.159, 2.707, 59.710, 24.528, 0.000
-2.981, 2.864, 4.707, 27.200, -28.417, 0.000
-4.472, 3.648, 9.767, 18.757, -23.214, 0.000
-4.511, 4.903, 9.454, 25.085, -22.957, 0.000
-3.609, 3.491, 8.002, 21.688, -22.458, 0.000
-4.590, 4.236, 9.179, 22.431, -24.417, 0.000
-4.354, 3.923, 8.316, 22.679, -25.340, 0.000
-4.001, 3.648, 8.081, 22.027, -24.289, 0.000
-5.492, 4.197, 11.533, 18.190, -24.107, 0.000
-3.609, 3.099, 8.865, 17.940, -21.021, 0.000
-3.570, 2.824, 9.140, 16.058, -20.463, 0.000
-3.491, 2.393, 9.179, 13.694, -20.206, 0.000
-3.099, 2.667, 9.650, 14.745, -17.199, 0.000
-2.746, 2.314, 9.532, 13.133, -15.639, 0.000
-3.256, 1.687, 8.904, 10.088, -19.761, 0.000
-3.687, 1.177, 9.807, 6.409, -20.472, 0.000
-2.824, 0.902, 12.082, 4.159, -13.122, 0.000
-1.530, 0.078, 10.748, 0.414, -8.101, 0.000
-1.255, -1.294, 9.846, -7.430, -7.204, 0.000
-0.981, -0.745, 8.394, -5.040, -6.637, 0.000
-1.255, -0.745, 9.022, -4.678, -7.894, 0.000
-2.432, -1.059, 12.160, -4.882, -11.268, 0.000
-1.726, -0.510, 10.434, -2.760, -9.381, 0.000
1.098, 0.706, 11.886, 3.385, 5.270, 0.000
-0.706, 3.844, 8.434, 24.429, -4.356, 0.000
0.078, 7.767, 5.178, 56.307, 0.482, 0.000
1.922, 9.964, 1.648, 75.744, 10.776, 0.000
1.177, 8.826, 2.079, 74.854, 7.395, 0.000
1.844, 7.178, 5.060, 53.121, 11.855, 0.000
1.216, 9.218, 3.805, 66.571, 6.952, 0.000
2.785, 10.199, 4.001, 64.453, 14.263, 0.000
1.648, 9.532, 3.413, 68.319, 9.242, 0.000
2.471, 11.533, 2.040, 74.472, 11.915, 0.000
2.589, 9.454, 2.589, 68.829, 14.796, 0.000
0.941, 8.865, 2.197, 74.913, 5.885, 0.000
0.588, 9.101, 2.628, 73.514, 3.554, 0.000
2.040, 10.120, 2.001, 74.235, 11.185, 0.000
1.844, 10.277, 1.451, 77.139, 10.072, 0.000
1.216, 9.846, 1.491, 78.945, 6.962, 0.000
0.785, 8.316, 1.648, 77.624, 5.287, 0.000
7.728, 8.081, 3.020, 44.243, 41.853, 0.000
8.159, 1.883, 2.157, 12.577, 70.661, 0.000
10.277, 0.510, 0.981, 2.828, 83.861, 0.000
9.532, -2.628, 2.157, -15.052, 70.368, 0.000
9.454, -1.765, 0.275, -10.572, 79.299, 0.000
9.728, -1.569, 1.334, -9.079, 78.048, 0.000
9.493, -1.530, 1.373, -9.062, 77.782, 0.000
9.767, -0.941, 1.765, -5.418, 78.425, 0.000
9.454, -1.059, 1.687, -6.294, 78.103, 0.000
9.650, -1.059, 1.177, -6.218, 80.683, 0.000
9.964, -1.098, 1.216, -6.245, 80.661, 0.000
9.257, -1.098, 0.941, -6.732, 81.119, 0.000
9.846, -0.275, 1.844, -1.570, 79.280, 0.000
10.042, 0.157, -0.745, 0.893, 94.337, 0.000
10.317, -1.765, 1.138, -9.652, 78.494, 0.000
7.688, -3.844, 0.275, -26.550, 63.377, 0.000
9.846, -0.588, 0.785, -3.409, 84.312, 0.000
8.748, -1.608, 2.001, -10.161, 73.646, 0.000
15.691, 10.160, 0.196, 32.921, 57.072, 0.000
9.140, -1.373, 2.354, -8.277, 73.400, 0.000
9.414, -0.745, 2.785, -4.341, 72.973, 0.000
9.728, -1.726, 2.707, -9.700, 71.738, 0.000
9.257, 0.275, 2.667, 1.633, 73.846, 0.000
9.650, -0.314, 2.981, -1.780, 72.743, 0.000
9.689, -1.020, 2.707, -5.789, 73.378, 0.000
9.336, -3.413, 3.962, -18.598, 60.747, 0.000
9.454, -1.844, 3.570, -10.340, 66.975, 0.000
9.022, -2.001, 2.314, -12.122, 71.270, 0.000
8.983, -1.961, 2.157, -11.986, 72.017, 0.000
8.826, -3.177, 2.236, -19.238, 66.241, 0.000
10.827, -0.588, 5.296, -2.795, 63.796, 0.000
8.748, 1.765, 4.550, 10.150, 60.841, 0.000
9.571, 0.824, 2.432, 4.768, 74.982, 0.000
10.434, -0.118, 3.217, -0.617, 72.856, 0.000
8.669, 0.588, 4.158, 3.502, 64.154, 0.000
10.003, -3.138, 5.570, -15.328, 57.415, 0.000
9.650, -4.511, 2.236, -24.485, 62.447, 0.000
8.198, 1.294, 1.804, 8.766, 74.844, 0.000
10.081, -0.392, 2.628, -2.156, 75.233, 0.000
10.277, -0.471, 2.942, -2.521, 73.833, 0.000
10.160, -0.431, 3.373, -2.308, 71.492, 0.000
9.532, -1.883, 2.981, -10.676, 69.700, 0.000
9.375, -1.491, 2.589, -8.713, 72.325, 0.000
8.904, -0.745, 2.511, -4.606, 73.611, 0.000
8.591, -3.217, 1.765, -20.141, 66.872, 0.000
10.827, -1.530, 5.296, -7.234, 63.018, 0.000
8.512, 1.059, 2.824, 6.735, 70.488, 0.000
14.396, -11.180, 12.474, -30.408, 40.677, 0.000
9.179, -2.393, 2.118, -14.252, 70.804, 0.000
9.611, -1.569, 2.903, -8.883, 71.050, 0.000
8.277, -0.706, -0.078, -4.876, 94.906, 0.000
9.728, -1.138, 2.471, -6.466, 74.376, 0.000
9.493, -1.530, 2.275, -8.907, 73.891, 0.000
9.218, -1.687, 2.040, -10.129, 73.980, 0.000
9.532, -1.177, 2.589, -6.794, 73.388, 0.000
10.552, -1.961, 2.432, -10.266, 73.506, 0.000
9.493, -1.098, 2.628, -6.363, 73.297, 0.000
9.454, -1.059, 2.785, -6.134, 72.506, 0.000
9.454, -1.138, 2.785, -6.584, 72.347, 0.000
9.454, -1.138, 2.785, -6.584, 72.347, 0.000
9.454, -1.138, 2.785, -6.584, 72.347, 0.000
9.414, -1.059, 2.746, -6.164, 72.640, 0.000
9.493, -1.059, 2.628, -6.137, 73.380, 0.000
9.454, -1.138, 2.785, -6.584, 72.347, 0.000
9.414, -0.902, 2.550, -5.285, 73.971, 0.000
9.532, -1.059, 2.785, -6.088, 72.641, 0.000
9.493, -1.020, 2.589, -5.918, 73.663, 0.000
9.414, -1.020, 2.785, -5.931, 72.513, 0.000
9.454, -1.020, 2.707, -5.921, 72.988, 0.000
9.571, -0.588, 2.707, -3.385, 73.860, 0.000
9.414, -0.431, 2.707, -2.522, 73.768, 0.000
9.493, -0.588, 2.746, -3.408, 73.521, 0.000
9.532, -0.588, 2.746, -3.395, 73.585, 0.000
9.532, -0.588, 2.824, -3.387, 73.161, 0.000
9.414, -0.392, 2.589, -2.301, 74.457, 0.000
9.846, -1.726, 2.314, -9.684, 73.657, 0.000
9.689, -0.824, 2.746, -4.676, 73.518, 0.000
9.532, -1.138, 2.628, -6.563, 73.278, 0.000
9.532, -1.294, 2.746, -7.435, 72.335, 0.000
9.767, -1.255, 2.824, -7.038, 72.441, 0.000
9.532, -1.020, 2.550, -5.901, 73.929, 0.000
9.571, -0.941, 2.824, -5.389, 72.722, 0.000
9.493, -1.098, 2.746, -6.342, 72.696, 0.000
9.493, -0.981, 2.746, -5.667, 72.926, 0.000
9.414, -1.020, 2.707, -5.944, 72.921, 0.000
9.532, -1.098, 2.785, -6.311, 72.563, 0.000
8.591, -1.177, 2.667, -7.453, 71.254, 0.000
9.297, 3.413, 1.412, 19.947, 68.333, 0.000
9.454, -0.981, 2.942, -5.657, 71.839, 0.000
9.454, -0.981, 2.903, -5.663, 72.042, 0.000
9.493, -1.138, 2.942, -6.530, 71.619, 0.000
8.865, -1.491, 2.118, -9.288, 73.713, 0.000
9.375, -0.431, 3.060, -2.505, 71.758, 0.000
9.375, -0.549, 2.824, -3.210, 72.939, 0.000
9.532, -1.020, 3.020, -5.824, 71.508, 0.000
9.493, -1.216, 2.667, -7.030, 72.839, 0.000
9.728, -0.941, 3.256, -5.243, 70.792, 0.000
9.611, -1.530, 3.099, -8.615, 70.221, 0.000
9.414, -1.373, 2.824, -7.952, 71.553, 0.000
9.375, -1.255, 3.060, -7.254, 70.569, 0.000
9.414, -1.726, 2.942, -9.926, 70.084, 0.000
9.375, -2.157, 3.923, -11.985, 64.475, 0.000
8.787, -3.295, 2.118, -20.030, 65.973, 0.000
10.042, -0.078, -6.198, -0.381, 121.684, 0.000
9.375, -1.883, 2.864, -10.873, 69.920, 0.000
9.257, -0.902, 2.393, -5.390, 74.558, 0.000
9.454, -1.883, 3.020, -10.743, 69.369, 0.000
9.375, -1.608, 3.138, -9.240, 69.387, 0.000
9.414, -1.491, 3.099, -8.553, 69.934, 0.000
9.414, -1.726, 3.099, -9.879, 69.355, 0.000
9.257, -1.569, 3.177, -9.108, 69.054, 0.000
8.708, -1.491, 3.060, -9.174, 68.653, 0.000
9.650, -1.294, 3.334, -7.226, 69.663, 0.000
9.257, -1.334, 3.060, -7.789, 70.174, 0.000
9.493, -1.294, 3.177, -7.368, 70.129, 0.000
9.297, -1.098, 2.981, -6.419, 71.132, 0.000
9.454, -1.491, 3.177, -8.501, 69.633, 0.000
9.611, -1.334, 3.217, -7.497, 70.083, 0.000
9.218, -1.098, 2.707, -6.522, 72.418, 0.000
9.650, -1.098, 3.177, -6.170, 70.792, 0.000
9.257, -1.138, 3.295, -6.604, 69.366, 0.000
9.454, -1.177, 2.903, -6.786, 71.669, 0.000
9.336, -1.098, 3.020, -6.387, 71.004, 0.000
9.571, -1.098, 2.942, -6.260, 71.835, 0.000
9.375, -1.098, 2.707, -6.422, 72.695, 0.000
9.375, -1.294, 2.903, -7.514, 71.273, 0.000
9.650, -1.177, 2.903, -6.661, 72.017, 0.000
9.454, -1.177, 2.864, -6.794, 71.867, 0.000
9.611, -1.294, 2.667, -7.395, 72.855, 0.000
9.414, -0.941, 2.275, -5.552, 75.343, 0.000
9.689, -1.255, 2.746, -7.105, 72.692, 0.000
9.454, -1.648, 3.413, -9.309, 68.156, 0.000
9.101, -0.431, 2.589, -2.611, 73.912, 0.000
9.061, -1.255, 2.864, -7.525, 70.963, 0.000
9.728, -1.530, 3.177, -8.502, 70.074, 0.000
9.375, -1.334, 2.550, -7.816, 72.937, 0.000
9.336, -1.373, 2.471, -8.091, 73.153, 0.000
10.199, -5.452, 3.413, -26.884, 57.760, 0.000
9.689, -1.177, 2.667, -6.679, 73.253, 0.000
9.571, -1.059, 2.667, -6.084, 73.308, 0.000
9.375, -0.863, 2.471, -5.086, 74.400, 0.000
8.865, -0.157, 2.157, -0.985, 76.287, 0.000
8.394, -0.706, 0.118, -4.807, 85.126, 0.000
9.532, -1.412, 2.864, -8.075, 71.481, 0.000
9.611, -1.059, 2.903, -6.022, 72.176, 0.000
9.297, -1.373, 2.314, -8.155, 73.857, 0.000
9.571, -1.412, 2.667, -8.089, 72.498, 0.000
9.650, -1.373, 3.060, -7.723, 70.836, 0.000
9.532, -1.648, 2.824, -9.409, 71.067, 0.000
10.003, -0.941, 4.354, -4.932, 65.994, 0.000
9.454, -1.373, 3.060, -7.867, 70.468, 0.000
9.179, -1.412, 2.981, -8.325, 70.233, 0.000
9.689, -1.255, 2.942, -7.067, 71.731, 0.000
9.297, -1.098, 3.452, -6.320, 68.712, 0.000
9.571, -1.059, 2.903, -6.045, 72.108, 0.000
9.454, -1.020, 2.785, -5.908, 72.581, 0.000
9.414, -1.020, 2.942, -5.904, 71.699, 0.000
9.336, -0.941, 2.746, -5.526, 72.728, 0.000
9.101, -0.785, 1.765, -4.837, 78.016, 0.000
9.454, -1.059, 2.981, -6.099, 71.497, 0.000
9.493, -1.059, 2.864, -6.097, 72.171, 0.000
9.493, -1.255, 3.060, -7.173, 70.792, 0.000
9.414, -1.059, 3.060, -6.107, 71.021, 0.000
9.375, -1.098, 2.864, -6.393, 71.885, 0.000
9.454, -1.138, 2.785, -6.584, 72.347, 0.000
9.336, -1.138, 2.903, -6.637, 71.533, 0.000
9.493, -1.098, 3.060, -6.284, 71.096, 0.000
9.493, -1.138, 2.864, -6.545, 72.017, 0.000
9.414, -0.863, 2.824, -5.018, 72.584, 0.000
9.375, -1.059, 3.020, -6.137, 71.150, 0.000
9.532, -1.020, 3.060, -5.817, 71.307, 0.000
9.964, -1.804, 4.433, -9.395, 64.344, 0.000
9.532, -1.216, 3.060, -6.926, 70.945, 0.000
9.336, -1.491, 2.824, -8.689, 71.116, 0.000
9.375, -1.177, 2.785, -6.861, 72.125, 0.000
9.571, -1.098, 3.060, -6.238, 71.240, 0.000
9.454, -1.138, 3.060, -6.531, 70.950, 0.000
9.414, -1.138, 2.942, -6.579, 71.477, 0.000
9.532, -1.216, 3.060, -6.926, 70.945, 0.000
9.454, -1.373, 2.942, -7.895, 71.046, 0.000
9.571, -1.255, 2.981, -7.137, 71.327, 0.000
9.493, -1.098, 2.824, -6.328, 72.296, 0.000
9.414, -1.138, 2.903, -6.587, 71.677, 0.000
9.375, -1.138, 3.020, -6.588, 71.003, 0.000
9.414, -1.059, 2.903, -6.136, 71.829, 0.000
9.414, -1.098, 2.903, -6.361, 71.754, 0.000
9.454, -1.177, 2.864, -6.794, 71.867, 0.000
9.454, -1.138, 2.785, -6.584, 72.347, 0.000
9.493, -1.098, 2.824, -6.328, 72.296, 0.000
9.414, -1.177, 2.824, -6.827, 71.996, 0.000
9.414, -1.059, 2.864, -6.143, 72.032, 0.000
9.414, -1.138, 2.903, -6.587, 71.677, 0.000
9.375, -1.138, 2.942, -6.604, 71.405, 0.000
9.454, -1.216, 2.903, -7.010, 71.587, 0.000
9.493, -1.138, 2.864, -6.545, 72.017, 0.000
9.414, -1.098, 2.746, -6.390, 72.561, 0.000
9.454, -1.098, 2.824, -6.352, 72.227, 0.000
9.454, -1.138, 2.864, -6.570, 71.948, 0.000
9.375, -1.098, 3.020, -6.363, 71.077, 0.000
9.454, -1.098, 2.942, -6.330, 71.624, 0.000
9.414, -1.098, 2.864, -6.369, 71.956, 0.000
9.414, -1.138, 2.824, -6.602, 72.078, 0.000
9.414, -1.138, 2.942, -6.579, 71.477, 0.000
9.454, -1.138, 2.864, -6.570, 71.948, 0.000
9.571, -1.138, 2.903, -6.489, 71.958, 0.000
9.414, -1.138, 2.746, -6.617, 72.479, 0.000
9.493, -1.098, 2.824, -6.328, 72.296, 0.000
9.414, -1.059, 2.824, -6.150, 72.235, 0.000
9.493, -1.098, 2.903, -6.314, 71.895, 0.000
9.375, -1.059, 2.864, -6.167, 71.962, 0.000
9.414, -1.177, 2.785, -6.835, 72.195, 0.000
9.532, -1.177, 2.903, -6.736, 71.809, 0.000
9.454, -1.138, 2.942, -6.554, 71.548, 0.000
9.414, -1.138, 2.903, -6.587, 71.677, 0.000
9.493, -1.020, 2.903, -5.866, 72.042, 0.000
9.414, -1.138, 2.942, -6.579, 71.477, 0.000
9.493, -1.138, 2.785, -6.560, 72.416, 0.000
9.454, -1.138, 2.864, -6.570, 71.948, 0.000
9.454, -1.098, 2.903, -6.338, 71.825, 0.000
9.454, -1.098, 2.864, -6.345, 72.026, 0.000
9.493, -1.059, 2.824, -6.104, 72.372, 0.000
9.493, -1.098, 2.864, -6.321, 72.095, 0.000
9.454, -1.177, 2.903, -6.786, 71.669, 0.000
9.493, -1.138, 2.864, -6.545, 72.017, 0.000
9.493, -1.020, 2.785, -5.886, 72.649, 0.000
9.414, -1.059, 2.942, -6.129, 71.627, 0.000
9.493, -1.098, 2.903, -6.314, 71.895, 0.000
9.375, -1.059, 2.903, -6.159, 71.758, 0.000
9.454, -1.098, 2.903, -6.338, 71.825, 0.000
9.375, -1.059, 2.942, -6.152, 71.555, 0.000
9.257, -1.020, 2.824, -6.015, 72.029, 0.000
9.454, -1.138, 2.746, -6.592, 72.547, 0.000
9.571, -1.177, 2.864, -6.718, 72.076, 0.000
9.454, -1.138, 2.824, -6.577, 72.147, 0.000
9.571, -1.216, 3.138, -6.884, 70.627, 0.000
9.414, -1.098, 2.942, -6.354, 71.553, 0.000
9.414, -1.098, 2.824, -6.376, 72.157, 0.000
9.454, -1.177, 2.824, -6.802, 72.066, 0.000
9.454, -1.138, 2.942, -6.554, 71.548, 0.000
9.454, -1.177, 2.942, -6.778, 71.470, 0.000
9.454, -1.138, 2.746, -6.592, 72.547, 0.000
9.375, -1.098, 2.903, -6.386, 71.683, 0.000
9.454, -1.059, 2.864, -6.120, 72.102, 0.000
9.493, -1.216, 3.060, -6.951, 70.872, 0.000
9.454, -1.255, 2.903, -7.234, 71.503, 0.000
9.493, -1.098, 2.903, -6.314, 71.895, 0.000
9.571, -1.138, 3.060, -6.459, 71.168, 0.000
9.532, -1.098, 2.785, -6.311, 72.563, 0.000
9.140, -1.216, 1.883, -7.424, 76.221, 0.000
9.532, -1.138, 2.746, -6.542, 72.682, 0.000
9.414, -1.255, 2.511, -7.341, 73.398, 0.000
9.493, -1.098, 2.471, -6.389, 74.099, 0.000
9.297, -0.471, 2.001, -2.834, 77.534, 0.000
9.375, -1.059, 2.511, -6.228, 73.794, 0.000
9.924, -0.667, 2.628, -3.716, 74.719, 0.000
9.532, -1.098, 2.471, -6.364, 74.161, 0.000
9.179, -1.059, 3.217, -6.215, 69.749, 0.000
9.532, -0.392, 1.294, -2.335, 81.924, 0.000
10.317, -0.706, 3.923, -3.660, 68.877, 0.000
7.296, -1.491, 5.766, -9.106, 50.775, 0.000
9.611, -0.745, 2.354, -4.308, 75.593, 0.000
9.611, -0.941, 2.314, -5.440, 75.427, 0.000
9.454, -0.785, 2.314, -4.608, 75.507, 0.000
9.611, -1.020, 2.471, -5.868, 74.454, 0.000
9.414, -0.431, 2.393, -2.543, 75.519, 0.000
9.493, -1.294, 2.471, -7.518, 73.623, 0.000
9.650, -0.863, 2.471, -4.951, 74.823, 0.000
9.493, -0.941, 2.471, -5.482, 74.433, 0.000
9.611, -0.706, 2.354, -4.082, 75.658, 0.000
9.532, -0.824, 2.432, -4.787, 74.923, 0.000
9.650, -0.785, 2.314, -4.520, 75.789, 0.000
9.493, -0.785, 2.511, -4.568, 74.513, 0.000
9.650, -0.902, 2.432, -5.180, 74.954, 0.000
9.689, -0.824, 2.354, -4.723, 75.567, 0.000
9.728, -0.824, 2.393, -4.701, 75.419, 0.000
9.571, -0.588, 2.432, -3.410, 75.349, 0.000
9.493, -0.706, 2.511, -4.113, 74.638, 0.000
9.728, -0.902, 2.393, -5.146, 75.272, 0.000
9.650, -0.902, 2.157, -5.213, 76.378, 0.000
10.081, -1.216, 2.942, -6.605, 72.475, 0.000
9.454, -0.745, 2.471, -4.362, 74.728, 0.000
9.140, -0.157, 2.236, -0.955, 76.221, 0.000
9.493, -0.902, 2.511, -5.250, 74.303, 0.000
9.650, -0.667, 2.471, -3.830, 75.144, 0.000
9.101, 0.314, 2.785, 1.889, 72.883, 0.000
17.181, -3.295, 0.588, -10.850, 78.976, 0.000
9.022, -0.314, 2.746, -1.906, 72.969, 0.000
10.199, -0.824, 2.746, -4.460, 74.300, 0.000
9.532, -0.902, 2.471, -5.235, 74.571, 0.000
9.532, -0.902, 2.511, -5.230, 74.365, 0.000
9.611, -0.941, 2.550, -5.409, 74.208, 0.000
9.611, -0.941, 2.432, -5.425, 74.818, 0.000
9.611, -0.902, 2.432, -5.200, 74.895, 0.000
9.532, -1.020, 2.511, -5.907, 74.131, 0.000
9.571, -1.020, 2.589, -5.873, 73.790, 0.000
9.532, -0.981, 2.471, -5.687, 74.415, 0.000
9.532, -0.981, 2.511, -5.682, 74.211, 0.000
9.532, -0.902, 2.432, -5.240, 74.777, 0.000
9.532, -0.941, 2.471, -5.461, 74.494, 0.000
9.532, -0.941, 2.550, -5.450, 74.085, 0.000
9.611, -0.902, 2.432, -5.200, 74.895, 0.000
9.532, -0.902, 2.393, -5.245, 74.982, 0.000
9.571, -0.863, 2.393, -4.999, 75.117, 0.000
9.493, -0.981, 2.471, -5.709, 74.354, 0.000
9.571, -0.941, 2.511, -5.435, 74.351, 0.000
9.532, -0.902, 2.393, -5.245, 74.982, 0.000
9.611, -0.863, 2.354, -4.985, 75.381, 0.000
9.532, -0.863, 2.393, -5.018, 75.058, 0.000
9.532, -0.981, 2.628, -5.664, 73.601, 0.000
9.532, -0.981, 2.393, -5.698, 74.821, 0.000
9.571, -0.863, 2.550, -4.979, 74.292, 0.000
9.611, -0.941, 2.550, -5.409, 74.208, 0.000
9.571, -0.941, 2.471, -5.440, 74.555, 0.000
9.532, -0.941, 2.393, -5.472, 74.903, 0.000
9.571, -0.981, 2.471, -5.666, 74.476, 0.000
9.532, -0.902, 2.354, -5.250, 75.188, 0.000
9.571, -0.863, 2.432, -4.994, 74.911, 0.000
9.571, -0.902, 2.354, -5.230, 75.246, 0.000
9.571, -0.941, 2.432, -5.446, 74.759, 0.000
9.571, -0.863, 2.511, -4.984, 74.498, 0.000
9.571, -0.902, 2.354, -5.230, 75.246, 0.000
9.611, -0.941, 2.471, -5.420, 74.615, 0.000
9.532, -0.941, 2.550, -5.450, 74.085, 0.000
9.532, -0.981, 2.550, -5.676, 74.008, 0.000
9.493, -0.863, 2.393, -5.038, 75.000, 0.000
9.611, -0.902, 2.511, -5.190, 74.486, 0.000
9.493, -0.941, 2.471, -5.482, 74.433, 0.000
9.571, -0.863, 2.511, -4.984, 74.498, 0.000
9.493, -0.981, 2.550, -5.698, 73.945, 0.000
9.571, -0.941, 2.550, -5.429, 74.147, 0.000
9.611, -1.098, 2.981, -6.229, 71.707, 0.000
9.532, -0.902, 2.471, -5.235, 74.571, 0.000
9.611, -0.981, 2.354, -5.660, 75.141, 0.000
9.532, -1.020, 2.511, -5.907, 74.131, 0.000
9.493, -0.941, 2.550, -5.471, 74.023, 0.000
9.493, -1.020, 2.432, -5.942, 74.474, 0.000
9.493, -0.981, 2.511, -5.703, 74.150, 0.000
9.611, -1.020, 2.432, -5.874, 74.655, 0.000
9.571, -0.981, 2.393, -5.677, 74.881, 0.000
9.767, -0.981, 2.667, -5.532, 73.777, 0.000
9.571, -0.902, 2.471, -5.215, 74.631, 0.000
9.571, -0.902, 2.511, -5.210, 74.426, 0.000
9.611, -0.902, 2.550, -5.185, 74.282, 0.000
9.689, -0.902, 2.432, -5.161, 75.012, 0.000
9.571, -0.981, 2.471, -5.666, 74.476, 0.000
9.650, -0.785, 2.471, -4.503, 74.960, 0.000
9.493, -0.941, 2.589, -5.465, 73.817, 0.000
9.571, -0.902, 2.432, -5.220, 74.836, 0.000
9.650, -0.941, 2.550, -5.388, 74.269, 0.000
9.532, -0.824, 2.275, -4.805, 75.757, 0.000
9.493, -0.902, 2.393, -5.265, 74.923, 0.000
9.532, -0.824, 2.550, -4.772, 74.299, 0.000
9.532, -0.941, 2.471, -5.461, 74.494, 0.000
10.317, -0.941, 4.236, -4.825, 67.185, 0.000
9.454, -0.863, 2.471, -5.047, 74.523, 0.000
8.630, -1.020, 1.412, -6.652, 78.588, 0.000
9.571, -0.902, 2.393, -5.225, 75.041, 0.000
9.532, -0.941, 2.471, -5.461, 74.494, 0.000
9.532, -0.863, 2.393, -5.018, 75.058, 0.000
9.532, -0.981, 2.550, -5.676, 74.008, 0.000
9.611, -0.981, 2.550, -5.633, 74.132, 0.000
9.493, -0.941, 2.432, -5.488, 74.638, 0.000
9.571, -0.863, 2.471, -4.989, 74.704, 0.000
9.454, -1.177, 2.707, -6.824, 72.662, 0.000
9.454, -0.902, 2.511, -5.270, 74.242, 0.000
9.532, -0.941, 2.393, -5.472, 74.903, 0.000
9.571, -0.902, 2.589, -5.199, 74.016, 0.000
9.571, -0.941, 2.707, -5.407, 73.332, 0.000
9.454, -1.098, 2.628, -6.387, 73.232, 0.000
9.571, -0.981, 2.511, -5.660, 74.273, 0.000
9.493, -0.941, 2.393, -5.493, 74.844, 0.000
9.336, -0.941, 2.667, -5.538, 73.144, 0.000
9.493, -0.902, 2.471, -5.255, 74.510, 0.000
9.532, -1.020, 2.511, -5.907, 74.131, 0.000
9.611, -1.020, 2.511, -5.862, 74.254, 0.000
9.571, -0.902, 2.471, -5.215, 74.631, 0.000
9.571, -0.941, 2.511, -5.435, 74.351, 0.000
9.571, -1.020, 2.511, -5.885, 74.192, 0.000
9.571, -0.941, 2.432, -5.446, 74.759, 0.000
9.454, -0.981, 2.471, -5.731, 74.292, 0.000
9.611, -1.020, 2.471, -5.868, 74.454, 0.000
9.571, -0.902, 2.511, -5.210, 74.426, 0.000
9.611, -0.941, 2.393, -5.430, 75.021, 0.000
9.571, -0.863, 2.471, -4.989, 74.704, 0.000
9.493, -0.902, 2.432, -5.260, 74.717, 0.000
9.454, -1.020, 2.550, -5.947, 73.802, 0.000
9.493, -0.981, 2.432, -5.715, 74.558, 0.000
9.493, -0.941, 2.511, -5.477, 74.228, 0.000
9.532, -0.824, 2.746, -4.747, 73.261, 0.000
9.611, -0.863, 2.432, -4.975, 74.969, 0.000
9.454, 0.000, 2.275, 0.000, 76.468, 0.000
9.650, -1.059, 2.589, -6.051, 73.834, 0.000
9.493, -0.902, 2.471, -5.255, 74.510, 0.000
9.689, -0.981, 2.550, -5.590, 74.254, 0.000
9.454, -0.981, 2.471, -5.731, 74.292, 0.000
9.532, -0.981, 2.314, -5.709, 75.228, 0.000
9.571, -0.863, 2.471, -4.989, 74.704, 0.000
9.414, -0.981, 2.393, -5.765, 74.641, 0.000
9.650, -0.941, 2.511, -5.394, 74.472, 0.000
8.904, -1.687, 2.667, -10.285, 70.484, 0.000
9.571, -0.981, 2.511, -5.660, 74.273, 0.000
9.532, -1.020, 2.432, -5.919, 74.535, 0.000
9.454, -1.098, 2.432, -6.420, 74.237, 0.000
9.493, -0.941, 2.471, -5.482, 74.433, 0.000
9.532, -0.981, 2.511, -5.682, 74.211, 0.000
9.611, -0.863, 2.314, -4.989, 75.586, 0.000
9.493, -1.294, 2.667, -7.479, 72.655, 0.000
9.571, -0.941, 2.471, -5.440, 74.555, 0.000
9.571, -1.020, 2.589, -5.873, 73.790, 0.000
9.571, -1.020, 2.511, -5.885, 74.192, 0.000
9.532, -0.902, 2.471, -5.235, 74.571, 0.000
9.493, -0.902, 2.275, -5.280, 75.543, 0.000
9.571, -0.981, 2.511, -5.660, 74.273, 0.000
9.689, -0.981, 2.589, -5.585, 74.054, 0.000
9.532, -0.824, 2.511, -4.777, 74.507, 0.000
9.532, -0.981, 2.471, -5.687, 74.415, 0.000
9.571, -0.824, 2.628, -4.744, 73.946, 0.000
9.336, -1.216, 2.746, -7.123, 72.169, 0.000
9.611, -0.981, 2.471, -5.644, 74.536, 0.000
9.571, -0.941, 2.393, -5.451, 74.962, 0.000
9.532, -0.902, 2.511, -5.230, 74.365, 0.000
9.140, -2.236, 1.530, -13.565, 73.489, 0.000
9.414, -0.941, 2.471, -5.525, 74.310, 0.000
9.336, -1.844, 2.981, -10.654, 69.421, 0.000
9.611, -0.863, 2.393, -4.980, 75.175, 0.000
9.689, -1.059, 2.511, -6.040, 74.293, 0.000
8.316, -3.256, -3.844, -19.564, 121.207, 0.000
9.532, -0.941, 2.393, -5.472, 74.903, 0.000
9.846, -0.235, 2.589, -1.324, 75.210, 0.000
9.689, -1.687, 3.805, -9.204, 66.753, 0.000
9.885, -0.353, 2.628, -1.977, 74.983, 0.000
9.454, 3.530, -3.020, 19.582, 116.173, 0.000
11.219, -1.491, 1.648, -7.489, 78.798, 0.000
9.571, -0.981, 2.471, -5.666, 74.476, 0.000
9.689, -0.941, 2.550, -5.368, 74.330, 0.000
9.571, -0.902, 2.550, -5.204, 74.221, 0.000
9.493, -0.981, 2.511, -5.703, 74.150, 0.000
9.179, -0.667, 1.922, -4.067, 77.503, 0.000
9.493, -0.941, 2.667, -5.454, 73.407, 0.000
9.611, -0.863, 2.393, -4.980, 75.175, 0.000
9.493, -1.059, 2.511, -6.156, 73.985, 0.000
9.454, -0.941, 2.471, -5.503, 74.372, 0.000
9.611, -0.824, 2.236, -4.772, 76.075, 0.000
9.611, -0.902, 2.354, -5.210, 75.304, 0.000
9.767, -0.902, 2.707, -5.087, 73.717, 0.000
9.611, -0.981, 2.471, -5.644, 74.536, 0.000
9.493, -0.981, 2.511, -5.703, 74.150, 0.000
9.532, -0.981, 2.589, -5.670, 73.805, 0.000
9.532, -0.941, 2.589, -5.445, 73.880, 0.000
9.493, -1.059, 2.432, -6.169, 74.388, 0.000
9.611, -0.981, 2.471, -5.644, 74.536, 0.000
9.571, -1.020, 2.550, -5.879, 73.991, 0.000
9.571, -0.941, 2.550, -5.429, 74.147, 0.000
9.611, -0.941, 2.589, -5.403, 74.005, 0.000
9.571, -1.373, 2.628, -7.875, 72.787, 0.000
9.571, -1.020, 2.314, -5.913, 75.198, 0.000
9.650, -0.902, 2.628, -5.155, 73.936, 0.000
9.846, -1.373, 2.354, -7.723, 74.531, 0.000
9.532, -1.098, 2.471, -6.364, 74.161, 0.000
10.081, -1.412, 3.217, -7.601, 70.789, 0.000
9.336, -0.745, 2.079, -4.456, 76.690, 0.000
9.611, -0.824, 2.746, -4.711, 73.390, 0.000
9.414, -0.941, 2.432, -5.530, 74.517, 0.000
9.493, -1.020, 2.550, -5.924, 73.866, 0.000
9.493, -0.981, 2.550, -5.698, 73.945, 0.000
9.571, -0.981, 2.550, -5.654, 74.070, 0.000
9.650, -0.941, 2.471, -5.399, 74.674, 0.000
9.493, -0.981, 2.589, -5.692, 73.741, 0.000
9.650, -0.981, 2.628, -5.600, 73.791, 0.000
9.532, -0.981, 2.471, -5.687, 74.415, 0.000
9.493, -0.941, 2.628, -5.460, 73.612, 0.000
9.532, -0.941, 2.589, -5.445, 73.880, 0.000
9.532, -0.902, 2.667, -5.208, 73.542, 0.000
9.571, -1.020, 2.550, -5.879, 73.991, 0.000
9.532, -0.981, 2.589, -5.670, 73.805, 0.000
9.454, -1.020, 2.628, -5.934, 73.395, 0.000
9.493, -1.098, 2.589, -6.369, 73.498, 0.000
9.493, -1.020, 2.707, -5.899, 73.054, 0.000
9.571, -0.941, 2.511, -5.435, 74.351, 0.000
9.571, -1.059, 2.824, -6.058, 72.508, 0.000
9.571, -0.981, 2.511, -5.660, 74.273, 0.000
9.493, -0.981, 2.511, -5.703, 74.150, 0.000
9.611, -0.902, 2.550, -5.185, 74.282, 0.000
9.532, -0.941, 2.667, -5.433, 73.472, 0.000
9.414, -0.941, 2.275, -5.552, 75.343, 0.000
9.611, -1.020, 2.589, -5.851, 73.852, 0.000
9.493, -1.059, 2.628, -6.137, 73.380, 0.000
9.571, -1.020, 2.628, -5.867, 73.588, 0.000
9.493, -0.981, 2.550, -5.698, 73.945, 0.000
9.532, -1.020, 2.589, -5.895, 73.726, 0.000
9.571, -0.902, 2.471, -5.215, 74.631, 0.000
9.571, -1.020, 2.550, -5.879, 73.991, 0.000
9.532, -1.059, 2.511, -6.133, 74.047, 0.000
9.571, -1.020, 2.589, -5.873, 73.790, 0.000
9.728, -0.863, 2.471, -4.914, 74.940, 0.000
9.885, -1.098, 2.707, -6.117, 73.538, 0.000
9.532, -0.981, 2.471, -5.687, 74.415, 0.000
9.493, -1.020, 2.471, -5.936, 74.271, 0.000
9.454, -0.706, 2.157, -4.165, 76.497, 0.000
9.179, -0.863, 2.707, -5.153, 72.803, 0.000
9.571, -1.020, 2.550, -5.879, 73.991, 0.000
9.571, -0.902, 2.550, -5.204, 74.221, 0.000
9.571, -0.902, 2.393, -5.225, 75.041, 0.000
9.532, -0.941, 2.471, -5.461, 74.494, 0.000
9.571, -1.020, 2.471, -5.891, 74.394, 0.000
9.493, -0.981, 2.589, -5.692, 73.741, 0.000
9.571, -0.941, 2.589, -5.424, 73.943, 0.000
9.650, -0.039, 3.177, -0.221, 71.774, 0.000
9.532, -1.020, 2.628, -5.889, 73.524, 0.000
9.493, -1.059, 2.667, -6.131, 73.178, 0.000
9.061, -1.216, 2.314, -7.408, 73.906, 0.000
9.611, -0.941, 2.667, -5.392, 73.599, 0.000
9.571, -0.941, 2.589, -5.424, 73.943, 0.000
9.532, -0.981, 2.471, -5.687, 74.415, 0.000
9.493, -1.098, 2.707, -6.349, 72.897, 0.000
9.532, -0.902, 2.471, -5.235, 74.571, 0.000
9.611, -1.020, 2.471, -5.868, 74.454, 0.000
9.532, -0.824, 2.511, -4.777, 74.507, 0.000
9.611, -0.981, 2.707, -5.610, 73.325, 0.000
9.532, -0.941, 2.471, -5.461, 74.494, 0.000
9.493, -0.981, 2.589, -5.692, 73.741, 0.000
9.493, -0.981, 2.393, -5.720, 74.762, 0.000
9.611, -0.863, 2.432, -4.975, 74.969, 0.000
9.571, -0.902, 2.589, -5.199, 74.016, 0.000
9.414, -0.981, 2.471, -5.753, 74.230, 0.000
9.532, -1.020, 2.628, -5.889, 73.524, 0.000
9.454, -2.001, 2.550, -11.548, 71.077, 0.000
9.336, -2.236, 2.550, -13.009, 70.037, 0.000
9.571, -0.353, 3.020, -2.015, 72.374, 0.000
9.611, -2.001, 2.236, -11.461, 72.662, 0.000
9.611, -1.530, 2.314, -8.797, 73.898, 0.000
9.532, -1.098, 2.667, -6.332, 73.163, 0.000
9.493, -1.020, 2.628, -5.912, 73.460, 0.000
9.571, -0.981, 2.511, -5.660, 74.273, 0.000
9.532, -0.981, 2.589, -5.670, 73.805, 0.000
9.532, -0.981, 2.511, -5.682, 74.211, 0.000
9.532, -1.138, 2.707, -6.549, 72.881, 0.000
9.571, -0.941, 2.589, -5.424, 73.943, 0.000
9.493, -1.059, 2.550, -6.150, 73.783, 0.000
9.493, -0.902, 2.471, -5.255, 74.510, 0.000
9.532, -0.588, 2.236, -3.439, 76.366, 0.000
9.493, -0.941, 2.471, -5.482, 74.433, 0.000
9.493, -1.059, 2.354, -6.181, 74.790, 0.000
9.532, -0.902, 2.471, -5.235, 74.571, 0.000
9.532, -0.745, 2.589, -4.315, 74.218, 0.000
9.454, -1.020, 2.628, -5.934, 73.395, 0.000
10.081, 2.864, 0.902, 15.797, 73.416, 0.000
9.414, -0.981, 2.471, -5.753, 74.230, 0.000
9.493, -0.902, 2.707, -5.222, 73.272, 0.000
9.689, -1.334, 3.020, -7.487, 71.182, 0.000
8.669, -1.844, 2.393, -11.585, 70.789, 0.000
9.728, -0.549, 2.628, -3.119, 74.571, 0.000
9.571, -1.216, 2.746, -6.963, 72.580, 0.000
9.532, -1.059, 2.432, -6.145, 74.449, 0.000
9.454, -0.902, 2.550, -5.265, 74.034, 0.000
9.532, -1.059, 2.432, -6.145, 74.449, 0.000
9.375, -1.020, 2.550, -5.993, 73.674, 0.000
9.493, -0.785, 2.589, -4.559, 74.094, 0.000
9.454, -1.569, 4.511, -8.519, 63.196, 0.000
9.571, -0.981, 2.550, -5.654, 74.070, 0.000
9.532, -1.255, 2.550, -7.250, 73.398, 0.000
9.571, -0.902, 2.628, -5.194, 73.811, 0.000
9.571, -0.941, 2.589, -5.424, 73.943, 0.000
9.532, -1.216, 2.550, -7.026, 73.493, 0.000
9.532, -1.020, 2.550, -5.901, 73.929, 0.000
9.257, -0.549, 3.020, -3.228, 71.653, 0.000
9.532, -0.981, 2.628, -5.664, 73.601, 0.000
9.454, -0.941, 2.628, -5.481, 73.548, 0.000
9.532, -0.981, 2.550, -5.676, 74.008, 0.000
9.532, -0.902, 2.471, -5.235, 74.571, 0.000
9.532, -1.255, 2.550, -7.250, 73.398, 0.000
9.414, -0.902, 2.589, -5.279, 73.763, 0.000
9.532, -0.941, 2.628, -5.439, 73.676, 0.000
9.257, -1.098, 2.511, -6.532, 73.511, 0.000
9.454, -0.902, 2.550, -5.265, 74.034, 0.000
9.650, -1.098, 2.511, -6.286, 74.147, 0.000
9.532, -0.902, 2.667, -5.208, 73.542, 0.000
9.532, -0.941, 2.511, -5.456, 74.290, 0.000
9.689, -1.177, 2.589, -6.693, 73.642, 0.000
9.454, -0.981, 2.589, -5.713, 73.677, 0.000
9.493, -0.902, 2.511, -5.250, 74.303, 0.000
9.336, -1.216, 2.550, -7.162, 73.165, 0.000
9.650, -0.981, 2.628, -5.600, 73.791, 0.000
9.454, -1.098, 2.511, -6.407, 73.835, 0.000
10.199, -1.530, 3.334, -8.114, 70.217, 0.000
9.571, -1.059, 2.589, -6.097, 73.709, 0.000
9.336, -1.059, 1.687, -6.370, 77.957, 0.000
9.336, -1.412, 2.589, -8.293, 72.470, 0.000
9.611, -0.824, 2.432, -4.750, 75.041, 0.000
9.611, -0.863, 2.550, -4.960, 74.353, 0.000
9.493, -0.902, 2.432, -5.260, 74.717, 0.000
9.493, -1.177, 2.667, -6.806, 72.927, 0.000
9.846, -0.745, 2.197, -4.225, 76.743, 0.000
9.611, -1.020, 2.354, -5.885, 75.056, 0.000
9.611, -0.902, 2.432, -5.200, 74.895, 0.000
9.532, -1.098, 2.511, -6.358, 73.961, 0.000
9.571, -1.648, 2.589, -9.434, 72.223, 0.000
9.454, -0.902, 2.628, -5.253, 73.620, 0.000
9.493, -1.020, 2.511, -5.930, 74.068, 0.000
9.571, -0.981, 2.589, -5.648, 73.868, 0.000
9.611, -0.981, 2.432, -5.649, 74.738, 0.000
9.493, -0.981, 2.511, -5.703, 74.150, 0.000
9.571, -0.981, 2.707, -5.631, 73.260, 0.000
9.571, -1.020, 2.471, -5.891, 74.394, 0.000
9.454, -1.098, 2.471, -6.413, 74.036, 0.000
9.454, -1.059, 2.511, -6.180, 73.922, 0.000
9.493, -1.098, 2.432, -6.395, 74.299, 0.000
9.532, -0.981, 2.550, -5.676, 74.008, 0.000
9.571, -0.863, 2.236, -5.018, 75.942, 0.000
9.532, -1.059, 2.550, -6.127, 73.846, 0.000
9.493, -1.059, 2.393, -6.175, 74.589, 0.000
9.493, -0.981, 2.511, -5.703, 74.150, 0.000
9.493, -1.020, 2.589, -5.918, 73.663, 0.000
9.571, -1.098, 2.550, -6.328, 73.825, 0.000
9.689, -1.059, 2.667, -6.016, 73.500, 0.000
9.454, -1.059, 2.550, -6.174, 73.719, 0.000
9.454, -0.941, 2.432, -5.509, 74.578, 0.000
9.571, -1.020, 2.432, -5.896, 74.595, 0.000
9.297, -0.706, 2.354, -4.211, 75.195, 0.000
9.728, -1.059, 2.785, -5.975, 72.971, 0.000
9.454, -1.098, 2.236, -6.451, 75.238, 0.000
10.003, -0.471, 1.687, -2.657, 80.070, 0.000
9.650, -1.138, 2.707, -6.476, 73.077, 0.000
9.728, -0.667, 2.628, -3.786, 74.426, 0.000
8.630, -2.903, 3.099, -17.566, 63.802, 0.000
9.611, -0.981, 2.903, -5.579, 72.317, 0.000
8.708, -1.020, 2.197, -6.479, 74.458, 0.000
9.846, -1.726, 3.373, -9.416, 68.950, 0.000
9.414, -1.098, 2.432, -6.445, 74.174, 0.000
9.689, -1.177, 2.628, -6.686, 73.448, 0.000
9.493, -1.138, 2.118, -6.671, 75.787, 0.000
9.532, -0.824, 2.236, -4.809, 75.965, 0.000
9.650, -0.902, 2.667, -5.149, 73.732, 0.000
9.454, -1.059, 2.471, -6.186, 74.124, 0.000
9.493, -0.824, 2.432, -4.805, 74.864, 0.000
9.532, -1.020, 2.589, -5.895, 73.726, 0.000
5.060, 0.000, -5.649, 0.000, 138.145, 0.000
8.787, -3.256, 2.432, -19.652, 65.179, 0.000
9.650, -1.138, 2.628, -6.489, 73.470, 0.000
9.532, -0.863, 2.432, -5.013, 74.851, 0.000
9.493, -0.981, 2.589, -5.692, 73.741, 0.000
9.414, -1.608, 2.550, -9.363, 72.244, 0.000
9.650, -1.412, 2.942, -7.969, 71.315, 0.000
9.532, -1.098, 2.471, -6.364, 74.161, 0.000
9.611, -1.098, 2.314, -6.340, 75.074, 0.000
9.611, -0.863, 2.471, -4.970, 74.764, 0.000
9.532, -0.941, 2.628, -5.439, 73.676, 0.000
9.846, -0.785, 2.864, -4.375, 73.219, 0.000
9.297, -1.020, 2.550, -6.039, 73.543, 0.000
9.571, -0.941, 2.667, -5.413, 73.536, 0.000
9.571, -0.941, 2.471, -5.440, 74.555, 0.000
9.571, -0.981, 2.511, -5.660, 74.273, 0.000
9.571, -0.981, 2.432, -5.671, 74.678, 0.000
9.571, -1.020, 2.511, -5.885, 74.192, 0.000
9.571, -0.981, 2.471, -5.666, 74.476, 0.000
9.493, -1.294, 2.746, -7.463, 72.266, 0.000
9.532, -1.020, 2.393, -5.925, 74.737, 0.000
9.493, -0.902, 2.314, -5.276, 75.336, 0.000
9.650, -0.981, 2.471, -5.623, 74.596, 0.000
9.493, -0.981, 2.589, -5.692, 73.741, 0.000
9.650, -1.059, 2.785, -6.020, 72.840, 0.000
9.532, -1.020, 2.432, -5.919, 74.535, 0.000
9.611, -1.020, 2.354, -5.885, 75.056, 0.000
9.571, -1.020, 2.511, -5.885, 74.192, 0.000
9.571, -1.098, 2.628, -6.315, 73.427, 0.000
9.650, -1.059, 2.471, -6.069, 74.431, 0.000
9.454, -0.902, 2.354, -5.291, 75.071, 0.000
10.003, -0.353, 0.314, -2.020, 87.296, 0.000
9.336, -1.373, 2.785, -8.021, 71.603, 0.000
9.571, -0.902, 2.589, -5.199, 74.016, 0.000
9.532, -0.941, 2.550, -5.450, 74.085, 0.000
9.336, -1.491, 2.589, -8.747, 72.256, 0.000
9.493, -1.059, 2.628, -6.137, 73.380, 0.000
10.944, 3.844, 2.667, 18.843, 66.852, 0.000
9.532, -1.059, 2.667, -6.107, 73.244, 0.000
9.611, -0.981, 2.393, -5.655, 74.940, 0.000
9.689, -0.824, 2.471, -4.710, 74.951, 0.000
9.728, -0.745, 2.471, -4.247, 75.140, 0.000
9.493, -0.941, 2.667, -5.454, 73.407, 0.000
9.650, -0.588, 2.197, -3.402, 76.739, 0.000
9.493, -1.020, 2.550, -5.924, 73.866, 0.000
9.532, -1.098, 2.628, -6.339, 73.362, 0.000
9.571, -1.020, 2.667, -5.861, 73.387, 0.000
9.493, -0.941, 2.550, -5.471, 74.023, 0.000
9.571, -0.981, 2.432, -5.671, 74.678, 0.000
9.571, -0.981, 2.589, -5.648, 73.868, 0.000
9.414, -1.294, 3.491, -7.346, 68.421, 0.000
9.454, -0.941, 2.354, -5.520, 74.990, 0.000
9.532, -1.020, 2.589, -5.895, 73.726, 0.000
9.532, -0.981, 2.589, -5.670, 73.805, 0.000
9.493, -0.981, 2.550, -5.698, 73.945, 0.000
9.571, -0.941, 2.432, -5.446, 74.759, 0.000
9.571, -1.059, 2.550, -6.103, 73.909, 0.000
9.571, -0.941, 2.628, -5.418, 73.739, 0.000
9.689, -1.020, 2.746, -5.783, 73.179, 0.000
9.728, -0.902, 2.511, -5.131, 74.665, 0.000
9.532, -0.941, 2.471, -5.461, 74.494, 0.000
9.532, -0.941, 2.550, -5.450, 74.085, 0.000
9.611, -0.981, 2.628, -5.621, 73.728, 0.000
9.571, -1.059, 2.589, -6.097, 73.709, 0.000
9.532, -0.941, 2.511, -5.456, 74.290, 0.000
9.532, -1.059, 2.589, -6.120, 73.645, 0.000
9.571, -1.020, 2.667, -5.861, 73.387, 0.000
9.571, -1.138, 2.393, -6.577, 74.527, 0.000
9.532, -1.098, 2.628, -6.339, 73.362, 0.000
9.650, -0.941, 2.589, -5.383, 74.067, 0.000
9.611, -1.059, 2.471, -6.092, 74.370, 0.000
9.885, -0.667, 2.275, -3.761, 76.513, 0.000
8.669, -0.667, 1.804, -4.307, 77.489, 0.000
9.571, -0.981, 2.667, -5.637, 73.462, 0.000
9.532, -1.098, 2.746, -6.318, 72.763, 0.000
9.532, -0.941, 2.511, -5.456, 74.290, 0.000
9.493, -0.941, 2.550, -5.471, 74.023, 0.000
9.493, -0.981, 2.511, -5.703, 74.150, 0.000
9.571, -0.785, 2.471, -4.538, 74.843, 0.000
9.532, -0.981, 2.471, -5.687, 74.415, 0.000
9.414, -0.941, 2.550, -5.513, 73.896, 0.000
9.493, -1.020, 2.550, -5.924, 73.866, 0.000
9.689, -1.098, 2.824, -6.211, 72.632, 0.000
9.493, -1.138, 2.785, -6.560, 72.416, 0.000
9.532, -1.020, 2.628, -5.889, 73.524, 0.000
9.493, -0.981, 2.432, -5.715, 74.558, 0.000
9.140, -0.902, 1.726, -5.540, 77.971, 0.000
9.571, -0.941, 2.667, -5.413, 73.536, 0.000
9.571, -0.941, 2.511, -5.435, 74.351, 0.000
9.571, -1.020, 2.667, -5.861, 73.387, 0.000
9.493, -1.255, 2.903, -7.207, 71.574, 0.000
9.650, -0.981, 2.550, -5.612, 74.193, 0.000
9.493, -0.824, 2.511, -4.795, 74.446, 0.000
3.923, -0.314, -4.354, -3.065, 138.058, 0.000
9.571, -0.941, 2.589, -5.424, 73.943, 0.000
9.414, -1.059, 2.471, -6.210, 74.061, 0.000
8.865, -1.216, 8.159, -5.763, 47.061, 0.000
9.532, -0.785, 2.511, -4.551, 74.574, 0.000
9.414, -1.098, 2.511, -6.432, 73.771, 0.000
9.571, -1.059, 2.589, -6.097, 73.709, 0.000
9.571, -0.981, 2.628, -5.643, 73.665, 0.000
9.493, -1.020, 2.471, -5.936, 74.271, 0.000
9.571, -1.098, 2.393, -6.352, 74.620, 0.000
9.650, -0.981, 2.628, -5.600, 73.791, 0.000
9.532, -0.981, 2.628, -5.664, 73.601, 0.000
9.571, -0.981, 2.628, -5.643, 73.665, 0.000
9.532, -0.941, 2.511, -5.456, 74.290, 0.000
9.571, -1.177, 2.785, -6.733, 72.469, 0.000
9.454, -0.981, 2.511, -5.725, 74.087, 0.000
9.454, -0.981, 2.667, -5.701, 73.268, 0.000
9.532, -0.941, 2.589, -5.445, 73.880, 0.000
9.454, -0.981, 2.589, -5.713, 73.677, 0.000
9.532, -0.941, 2.589, -5.445, 73.880, 0.000
9.571, -1.098, 2.667, -6.308, 73.228, 0.000
9.571, -1.059, 2.667, -6.084, 73.308, 0.000
9.846, -1.608, 4.080, -8.582, 65.993, 0.000
9.571, -0.745, 2.511, -4.307, 74.698, 0.000
9.532, -1.059, 2.667, -6.107, 73.244, 0.000
9.571, -0.902, 2.393, -5.225, 75.041, 0.000
10.513, -1.294, 3.687, -6.628, 69.608, 0.000
9.297, -1.608, 2.589, -9.462, 71.849, 0.000
11.336, 1.648, 1.530, 8.196, 78.783, 0.000
9.493, -1.373, 3.256, -7.790, 69.584, 0.000
9.571, -0.981, 2.511, -5.660, 74.273, 0.000
9.493, -0.941, 2.589, -5.465, 73.817, 0.000
9.454, -1.020, 2.471, -5.959, 74.209, 0.000
9.493, -0.902, 2.471, -5.255, 74.510, 0.000
9.611, -0.902, 2.667, -5.169, 73.670, 0.000
9.493, -1.138, 2.785, -6.560, 72.416, 0.000
9.493, -0.981, 2.707, -5.674, 73.129, 0.000
9.964, -1.412, 2.275, -7.867, 74.957, 0.000
9.532, -0.706, 2.432, -4.105, 75.121, 0.000
9.571, -0.902, 2.707, -5.183, 73.402, 0.000
9.532, -1.059, 2.589, -6.120, 73.645, 0.000
9.611, -1.216, 2.393, -7.000, 74.396, 0.000
10.434, -1.098, 4.158, -5.585, 67.600, 0.000
9.571, -1.020, 2.511, -5.885, 74.192, 0.000
9.493, -1.138, 2.550, -6.602, 73.611, 0.000
9.571, -0.941, 2.550, -5.429, 74.147, 0.000
9.611, -0.941, 2.628, -5.398, 73.802, 0.000
9.532, -0.981, 2.628, -5.664, 73.601, 0.000
9.532, -0.981, 2.628, -5.664, 73.601, 0.000
9.493, -0.941, 2.393, -5.493, 74.844, 0.000
9.571, -0.941, 2.589, -5.424, 73.943, 0.000
9.493, -1.020, 2.550, -5.924, 73.866, 0.000
9.532, -0.667, 2.628, -3.858, 74.121, 0.000
9.414, -1.098, 2.707, -6.398, 72.762, 0.000
9.532, -1.020, 2.393, -5.925, 74.737, 0.000
9.493, -1.138, 2.471, -6.615, 74.008, 0.000
9.375, -1.530, 2.471, -8.967, 72.776, 0.000
9.571, -0.902, 2.471, -5.215, 74.631, 0.000
9.611, -0.510, 2.354, -2.950, 75.932, 0.000
9.179, -1.177, 2.001, -7.140, 75.810, 0.000
9.571, -1.177, 2.589, -6.769, 73.452, 0.000
9.375, -0.314, 0.510, -1.914, 86.346, 0.000
9.650, -1.098, 2.550, -6.280, 73.949, 0.000
9.375, -0.824, 2.118, -4.899, 76.373, 0.000
9.532, -1.020, 2.628, -5.889, 73.524, 0.000
9.767, -0.706, 3.334, -3.914, 70.764, 0.000
9.454, -0.902, 2.550, -5.265, 74.034, 0.000
9.257, -1.177, 2.314, -7.030, 74.333, 0.000
9.493, -1.098, 2.589, -6.369, 73.498, 0.000
9.571, -0.902, 2.432, -5.220, 74.836, 0.000
9.571, -0.902, 2.511, -5.210, 74.426, 0.000
8.198, -2.785, 1.844, -18.337, 67.834, 0.000
9.532, -1.059, 2.589, -6.120, 73.645, 0.000
9.807, 1.177, 2.275, 6.667, 75.362, 0.000
9.493, -1.059, 2.511, -6.156, 73.985, 0.000
9.650, -1.020, 2.393, -5.857, 74.914, 0.000
9.571, -1.020, 2.511, -5.885, 74.192, 0.000
9.532, -1.059, 2.354, -6.157, 74.850, 0.000
9.454, -0.941, 2.471, -5.503, 74.372, 0.000
9.728, -1.373, 3.177, -7.641, 70.414, 0.000
9.493, -1.216, 2.746, -7.015, 72.445, 0.000
9.454, -1.059, 2.314, -6.210, 74.932, 0.000
9.689, 0.118, 2.236, 0.678, 76.988, 0.000
9.454, -0.902, 2.354, -5.291, 75.071, 0.000
9.728, -1.059, 2.903, -5.956, 72.379, 0.000
9.532, -1.726, 3.177, -9.747, 69.226, 0.000
10.317, 0.863, 1.804, 4.710, 79.028, 0.000
10.042, -1.687, 3.217, -9.088, 70.116, 0.000
9.493, -0.588, 2.511, -3.429, 74.803, 0.000
9.414, -0.667, 1.765, -3.983, 78.666, 0.000
9.454, -0.981, 2.471, -5.731, 74.292, 0.000
9.650, -1.412, 2.903, -7.977, 71.504, 0.000
9.493, -0.863, 2.550, -5.018, 74.169, 0.000
9.807, -0.745, 2.746, -4.186, 73.821, 0.000
9.885, -1.020, 3.020, -5.635, 72.125, 0.000
9.650, -0.353, 2.393, -2.034, 75.929, 0.000
9.493, -0.745, 2.550, -4.336, 74.367, 0.000
9.336, -0.431, 2.118, -2.581, 76.963, 0.000
9.532, -0.941, 2.667, -5.433, 73.472, 0.000
9.571, -0.628, 2.667, -3.614, 74.024, 0.000
10.944, 3.530, 4.786, 16.466, 61.481, 0.000
9.375, -0.981, 2.511, -5.770, 73.961, 0.000
9.532, -0.863, 2.393, -5.018, 75.058, 0.000
9.532, -1.059, 2.511, -6.133, 74.047, 0.000
9.454, -0.863, 2.275, -5.072, 75.566, 0.000
9.571, -1.216, 3.060, -6.900, 71.017, 0.000
9.454, -1.020, 2.471, -5.959, 74.209, 0.000
9.885, -2.628, 4.040, -13.826, 64.006, 0.000
9.454, -1.098, 2.628, -6.387, 73.232, 0.000
9.728, -0.981, 2.628, -5.558, 73.915, 0.000
9.532, -1.177, 2.511, -6.808, 73.782, 0.000
9.257, -0.941, 2.118, -5.661, 75.942, 0.000
9.767, -1.451, 3.648, -7.925, 68.101, 0.000
9.689, -0.981, 2.707, -5.568, 73.452, 0.000
9.454, -1.138, 2.471, -6.640, 73.945, 0.000
9.532, -0.981, 2.471, -5.687, 74.415, 0.000
9.454, -0.745, 2.236, -4.387, 76.001, 0.000
9.728, -1.412, 2.079, -8.079, 75.514, 0.000
9.493, -1.020, 2.628, -5.912, 73.460, 0.000
9.493, -1.138, 2.785, -6.560, 72.416, 0.000
9.571, -0.118, 2.667, -0.679, 74.413, 0.000
9.493, -0.902, 2.550, -5.244, 74.097, 0.000
9.493, -1.294, 2.550, -7.502, 73.236, 0.000
9.571, -1.216, 2.824, -6.948, 72.189, 0.000
9.493, -1.138, 2.667, -6.581, 73.013, 0.000
9.493, -0.981, 2.628, -5.686, 73.537, 0.000
9.532, -1.059, 2.511, -6.133, 74.047, 0.000
9.611, -1.059, 2.471, -6.092, 74.370, 0.000
9.532, -0.981, 2.550, -5.676, 74.008, 0.000
9.532, -1.020, 2.471, -5.913, 74.333, 0.000
9.493, -0.981, 2.628, -5.686, 73.537, 0.000
9.571, -1.098, 2.511, -6.334, 74.024, 0.000
9.571, -1.059, 2.550, -6.103, 73.909, 0.000
9.532, -1.020, 2.628, -5.889, 73.524, 0.000
9.454, -1.020, 2.628, -5.934, 73.395, 0.000
9.571, -0.981, 2.550, -5.654, 74.070, 0.000
9.571, -1.020, 2.589, -5.873, 73.790, 0.000
9.532, -0.941, 2.550, -5.450, 74.085, 0.000
9.493, -0.981, 2.667, -5.680, 73.333, 0.000
9.571, -0.902, 2.550, -5.204, 74.221, 0.000
9.571, -1.138, 2.707, -6.524, 72.947, 0.000
9.532, -1.059, 2.589, -6.120, 73.645, 0.000
9.611, -0.941, 2.589, -5.403, 74.005, 0.000
9.493, -0.941, 2.589, -5.465, 73.817, 0.000
9.532, -1.059, 2.511, -6.133, 74.047, 0.000
9.532, -1.098, 2.589, -6.345, 73.562, 0.000
9.454, -1.020, 2.589, -5.940, 73.599, 0.000
9.571, -1.020, 2.511, -5.885, 74.192, 0.000
9.532, -0.981, 2.628, -5.664, 73.601, 0.000
9.611, -1.020, 2.589, -5.851, 73.852, 0.000
9.532, -0.981, 2.550, -5.676, 74.008, 0.000
9.571, -0.981, 2.628, -5.643, 73.665, 0.000
9.571, -0.902, 2.628, -5.194, 73.811, 0.000
9.454, -0.981, 2.628, -5.707, 73.473, 0.000
9.454, -0.941, 2.628, -5.481, 73.548, 0.000
9.532, -0.981, 2.785, -5.640, 72.789, 0.000
9.414, -0.863, 2.746, -5.029, 73.000, 0.000
9.454, -0.902, 2.667, -5.248, 73.413, 0.000
9.650, -1.138, 2.589, -6.496, 73.667, 0.000
9.493, -1.216, 2.589, -7.045, 73.232, 0.000
9.571, -0.981, 2.550, -5.654, 74.070, 0.000
9.493, -0.981, 2.667, -5.680, 73.333, 0.000
9.493, -0.981, 2.589, -5.692, 73.741, 0.000
9.532, -1.059, 2.550, -6.127, 73.846, 0.000
9.571, -1.020, 2.589, -5.873, 73.790, 0.000
9.532, -0.981, 2.589, -5.670, 73.805, 0.000
9.532, -1.020, 2.628, -5.889, 73.524, 0.000
9.532, -1.138, 2.589, -6.570, 73.476, 0.000
9.532, -1.020, 2.589, -5.895, 73.726, 0.000
9.571, -1.059, 2.589, -6.097, 73.709, 0.000
9.571, -1.020, 2.589, -5.873, 73.790, 0.000
9.571, -1.059, 2.589, -6.097, 73.709, 0.000
9.493, -1.059, 2.550, -6.150, 73.783, 0.000
9.532, -1.020, 2.628, -5.889, 73.524, 0.000
9.532, -1.020, 2.589, -5.895, 73.726, 0.000
9.454, -1.059, 2.550, -6.174, 73.719, 0.000
9.532, -0.981, 2.550, -5.676, 74.008, 0.000
9.493, -1.020, 2.628, -5.912, 73.460, 0.000
9.493, -1.020, 2.471, -5.936, 74.271, 0.000
9.571, -1.138, 2.589, -6.545, 73.540, 0.000
9.493, -0.981, 2.589, -5.692, 73.741, 0.000
9.493, -1.020, 2.550, -5.924, 73.866, 0.000
9.532, -1.098, 2.550, -6.352, 73.762, 0.000
9.493, -1.059, 2.667, -6.131, 73.178, 0.000
9.532, -1.098, 2.628, -6.339, 73.362, 0.000
9.571, -1.059, 2.550, -6.103, 73.909, 0.000
9.571, -0.981, 2.628, -5.643, 73.665, 0.000
9.493, -1.020, 2.628, -5.912, 73.460, 0.000
9.454, -1.020, 2.628, -5.934, 73.395, 0.000
9.532, -1.098, 2.628, -6.339, 73.362, 0.000
9.571, -0.941, 2.432, -5.446, 74.759, 0.000
9.532, -1.059, 2.550, -6.127, 73.846, 0.000
9.454, -1.334, 2.785, -7.707, 71.911, 0.000
9.493, -1.059, 2.589, -6.144, 73.582, 0.000
9.571, -0.628, 2.511, -3.629, 74.871, 0.000
9.532, -0.981, 2.589, -5.670, 73.805, 0.000
9.571, -0.981, 2.589, -5.648, 73.868, 0.000
9.375, -0.902, 2.118, -5.363, 76.202, 0.000
9.571, -0.549, 2.432, -3.183, 75.399, 0.000
9.571, -1.098, 2.511, -6.334, 74.024, 0.000
9.493, -1.020, 2.589, -5.918, 73.663, 0.000
9.493, -1.059, 2.511, -6.156, 73.985, 0.000
9.532, -0.981, 2.628, -5.664, 73.601, 0.000
9.532, -0.981, 2.589, -5.670, 73.805, 0.000
9.454, -0.981, 2.432, -5.737, 74.497, 0.000
9.532, -1.059, 2.589, -6.120, 73.645, 0.000
9.493, -1.020, 2.628, -5.912, 73.460, 0.000
9.493, -1.216, 2.471, -7.067, 73.820, 0.000
9.414, -0.785, 2.511, -4.604, 74.390, 0.000
9.846, -1.098, 3.060, -6.081, 71.728, 0.000
9.414, -1.216, 2.511, -7.114, 73.495, 0.000
9.571, -1.294, 2.354, -7.482, 74.324, 0.000
9.297, -1.098, 2.432, -6.520, 73.984, 0.000
9.532, -0.902, 2.667, -5.208, 73.542, 0.000
9.650, -0.785, 2.903, -4.452, 72.693, 0.000
9.571, -0.981, 2.511, -5.660, 74.273, 0.000
9.571, -1.334, 2.746, -7.629, 72.311, 0.000
9.454, -1.138, 2.550, -6.627, 73.546, 0.000
9.532, -0.902, 2.550, -5.224, 74.159, 0.000
9.650, -1.059, 2.550, -6.057, 74.033, 0.000
9.728, -1.373, 3.138, -7.650, 70.603, 0.000
9.375, -1.569, 2.824, -9.104, 70.985, 0.000
9.454, -1.294, 2.511, -7.539, 73.365, 0.000
9.728, -1.098, 2.785, -6.195, 72.894, 0.000
9.179, -1.844, 2.824, -10.867, 69.824, 0.000
9.414, -0.785, 2.511, -4.604, 74.390, 0.000
9.454, -0.941, 2.471, -5.503, 74.372, 0.000
9.493, -1.059, 2.707, -6.124, 72.977, 0.000
9.571, -0.981, 2.628, -5.643, 73.665, 0.000
9.454, -0.785, 2.511, -4.586, 74.452, 0.000
9.532, -1.020, 2.589, -5.895, 73.726, 0.000
9.454, -0.941, 2.550, -5.492, 73.960, 0.000
9.650, -0.941, 2.667, -5.372, 73.662, 0.000
9.532, -1.569, 2.628, -9.017, 72.197, 0.000
9.532, -0.981, 2.589, -5.670, 73.805, 0.000
9.454, -1.059, 2.981, -6.099, 71.497, 0.000
9.454, -1.059, 2.589, -6.167, 73.517, 0.000
9.493, -0.628, 2.275, -3.679, 76.038, 0.000
9.650, 4.707, 1.844, 25.601, 62.351, 0.000
9.611, -1.098, 2.667, -6.284, 73.292, 0.000
9.532, -1.216, 2.707, -6.996, 72.709, 0.000
9.454, -0.902, 2.393, -5.286, 74.863, 0.000
9.571, -1.138, 2.589, -6.545, 73.540, 0.000
9.532, -0.941, 2.511, -5.456, 74.290, 0.000
9.611, -0.981, 2.707, -5.610, 73.325, 0.000
9.611, -1.138, 2.628, -6.514, 73.407, 0.000
9.532, -1.059, 2.432, -6.145, 74.449, 0.000
9.532, -1.098, 2.628, -6.339, 73.362, 0.000
9.336, -0.981, 2.432, -5.804, 74.311, 0.000
9.532, -1.020, 2.589, -5.895, 73.726, 0.000
9.532, -0.902, 2.667, -5.208, 73.542, 0.000
9.611, -1.177, 2.432, -6.770, 74.298, 0.000
9.571, -0.549, 2.746, -3.157, 73.692, 0.000
9.493, -1.020, 2.511, -5.930, 74.068, 0.000
9.218, -1.177, 2.275, -7.065, 74.471, 0.000
9.611, -0.981, 2.628, -5.621, 73.728, 0.000
9.493, -0.981, 2.550, -5.698, 73.945, 0.000
9.414, -2.628, 4.158, -14.325, 62.413, 0.000
9.532, -1.098, 2.746, -6.318, 72.763, 0.000
9.611, -1.059, 2.628, -6.068, 73.572, 0.000
9.532, -0.981, 2.628, -5.664, 73.601, 0.000
9.532, -1.373, 2.589, -7.913, 72.911, 0.000
9.571, -1.020, 2.511, -5.885, 74.192, 0.000
9.571, -0.981, 2.707, -5.631, 73.260, 0.000
8.669, -0.353, 1.687, -2.289, 78.757, 0.000
9.532, -1.020, 2.628, -5.889, 73.524, 0.000
9.061, -1.961, 6.512, -9.969, 53.112, 0.000
9.571, -0.863, 2.589, -4.974, 74.086, 0.000
9.297, -0.824, 2.628, -4.874, 73.497, 0.000
9.571, -1.216, 2.589, -6.992, 73.362, 0.000
9.493, -0.981, 2.667, -5.680, 73.333, 0.000
9.218, -0.314, 1.961, -1.907, 77.840, 0.000
9.571, -1.020, 2.589, -5.873, 73.790, 0.000
9.257, -0.196, 2.079, -1.184, 77.288, 0.000
9.689, -0.981, 2.746, -5.562, 73.252, 0.000
9.493, -1.020, 2.589, -5.918, 73.663, 0.000
9.493, -0.981, 2.511, -5.703, 74.150, 0.000
9.611, -0.941, 2.511, -5.414, 74.412, 0.000
9.571, -0.981, 2.550, -5.654, 74.070, 0.000
9.532, -0.628, 2.432, -3.651, 75.238, 0.000
9.493, -1.098, 2.589, -6.369, 73.498, 0.000
9.650, -0.902, 2.511, -5.170, 74.546, 0.000
9.493, -1.059, 2.550, -6.150, 73.783, 0.000
9.414, -0.745, 2.001, -4.428, 77.223, 0.000
9.571, -1.059, 2.746, -6.071, 72.908, 0.000
9.454, -0.902, 2.550, -5.265, 74.034, 0.000
9.532, -0.902, 2.667, -5.208, 73.542, 0.000
9.611, -1.412, 2.785, -8.033, 72.000, 0.000
9.689, -1.648, 3.334, -9.134, 69.001, 0.000
9.571, -1.098, 2.667, -6.308, 73.228, 0.000
9.532, -1.059, 2.471, -6.139, 74.248, 0.000
9.611, -0.706, 1.844, -4.127, 78.392, 0.000
9.414, -1.020, 2.589, -5.963, 73.534, 0.000
9.571, -1.530, 3.060, -8.657, 70.333, 0.000
9.571, -1.020, 2.746, -5.848, 72.984, 0.000
9.454, -1.491, 3.060, -8.532, 70.200, 0.000
9.022, -2.001, 3.452, -11.700, 66.144, 0.000
9.336, -0.667, 2.314, -3.966, 75.534, 0.000
9.493, -0.981, 2.707, -5.674, 73.129, 0.000
10.081, -1.138, 4.511, -5.881, 65.228, 0.000
9.336, -1.883, 2.511, -11.021, 71.421, 0.000
9.375, -0.510, 2.511, -3.008, 74.717, 0.000
9.611, -0.941, 2.589, -5.403, 74.005, 0.000
9.375, -0.196, 2.785, -1.149, 73.416, 0.000
9.336, -0.588, 1.922, -3.532, 77.849, 0.000
9.650, -0.981, 2.942, -5.552, 72.184, 0.000
9.493, -0.549, 1.726, -3.258, 79.198, 0.000
9.493, -0.863, 2.667, -5.002, 73.546, 0.000
9.532, -0.902, 2.667, -5.208, 73.542, 0.000
9.414, -0.431, 2.707, -2.522, 73.768, 0.000
9.767, -1.177, 2.785, -6.609, 72.800, 0.000
10.120, -1.216, 4.158, -6.342, 66.826, 0.000
9.650, -1.138, 2.511, -6.509, 74.059, 0.000
9.846, -0.824, 2.864, -4.593, 73.163, 0.000
9.336, -0.941, 2.275, -5.596, 75.225, 0.000
10.513, -1.255, 3.687, -6.429, 69.670, 0.000
9.846, -0.824, 3.687, -4.480, 69.007, 0.000
9.611, -1.491, 3.883, -8.183, 66.596, 0.000
9.571, -1.098, 2.785, -6.288, 72.631, 0.000
9.454, -1.020, 2.667, -5.928, 73.192, 0.000
9.767, -0.431, 2.393, -2.457, 76.021, 0.000
9.728, -0.039, 2.393, -0.224, 76.180, 0.000
9.101, -0.863, 2.079, -5.282, 76.107, 0.000
9.336, -0.824, 2.314, -4.895, 75.258, 0.000
9.375, -1.255, 2.432, -7.384, 73.726, 0.000
9.493, -0.078, 1.098, -0.470, 83.383, 0.000
9.493, -0.667, 2.511, -3.885, 74.697, 0.000
9.532, -0.941, 2.707, -5.427, 73.267, 0.000
9.532, -0.824, 2.785, -4.742, 73.054, 0.000
9.924, -2.393, 3.138, -12.947, 68.315, 0.000
9.414, -1.059, 2.903, -6.136, 71.829, 0.000
11.729, 6.315, 3.413, 27.340, 58.531, 0.000
9.532, -1.020, 2.667, -5.883, 73.322, 0.000
9.650, -0.824, 2.471, -4.727, 74.893, 0.000
9.885, -1.255, 3.099, -6.909, 71.313, 0.000
9.532, -1.608, 2.824, -9.189, 71.172, 0.000
9.532, -0.824, 2.511, -4.777, 74.507, 0.000
9.611, -0.431, 3.099, -2.447, 71.967, 0.000
9.728, -0.353, 2.981, -1.987, 72.850, 0.000
9.532, -1.059, 2.197, -6.180, 75.649, 0.000
9.336, -1.373, 2.550, -8.074, 72.767, 0.000
9.689, -1.294, 2.942, -7.285, 71.647, 0.000
9.493, -0.902, 2.550, -5.244, 74.097, 0.000
9.493, -0.981, 2.628, -5.686, 73.537, 0.000
9.611, -1.020, 2.746, -5.826, 73.050, 0.000
9.454, -0.902, 2.393, -5.286, 74.863, 0.000
9.532, -0.588, 2.471, -3.420, 75.077, 0.000
9.493, -1.138, 2.589, -6.595, 73.412, 0.000
9.493, -0.981, 2.511, -5.703, 74.150, 0.000
9.532, -1.098, 2.628, -6.339, 73.362, 0.000
9.689, -0.941, 2.785, -5.335, 73.121, 0.000
9.571, -1.059, 2.471, -6.115, 74.309, 0.000
9.218, -0.902, 2.079, -5.454, 76.188, 0.000
9.532, -0.902, 2.550, -5.224, 74.159, 0.000
9.454, -1.059, 2.589, -6.167, 73.517, 0.000
9.454, -0.431, 2.511, -2.526, 74.920, 0.000
9.493, -1.177, 2.628, -6.813, 73.125, 0.000
9.493, -0.981, 2.589, -5.692, 73.741, 0.000
9.454, -0.706, 2.471, -4.133, 74.791, 0.000
9.532, -1.098, 2.628, -6.339, 73.362, 0.000
9.767, -1.608, 2.667, -9.026, 72.313, 0.000
9.493, -0.981, 2.471, -5.709, 74.354, 0.000
9.611, -0.902, 2.707, -5.163, 73.466, 0.000
9.611, -1.294, 2.550, -7.418, 73.430, 0.000
9.493, -1.059, 2.471, -6.162, 74.186, 0.000
9.454, -1.059, 2.393, -6.198, 74.528, 0.000
9.571, -0.941, 2.550, -5.429, 74.147, 0.000
9.571, -0.981, 2.511, -5.660, 74.273, 0.000
9.571, -1.216, 2.628, -6.985, 73.166, 0.000
9.454, -0.941, 2.471, -5.503, 74.372, 0.000
9.611, -1.098, 2.667, -6.284, 73.292, 0.000
9.532, -1.177, 2.550, -6.801, 73.585, 0.000
9.571, -0.981, 2.707, -5.631, 73.260, 0.000
9.689, -0.392, 2.628, -2.238, 74.663, 0.000
9.611, -1.098, 2.589, -6.297, 73.689, 0.000
9.571, -0.510, 2.589, -2.944, 74.587, 0.000
9.532, -1.059, 2.471, -6.139, 74.248, 0.000
9.767, -1.059, 2.942, -5.928, 72.249, 0.000
9.454, 1.530, 1.726, 9.045, 76.290, 0.000
9.571, -0.902, 2.667, -5.188, 73.606, 0.000
9.414, -0.824, 2.589, -4.823, 73.903, 0.000
9.493, -0.902, 2.628, -5.233, 73.684, 0.000
9.414, -0.902, 2.746, -5.256, 72.933, 0.000
9.611, -1.569, 2.236, -9.035, 74.134, 0.000
9.414, -0.824, 2.157, -4.875, 76.217, 0.000
9.650, -1.020, 2.511, -5.840, 74.315, 0.000
9.179, -1.569, 2.393, -9.392, 72.686, 0.000
9.532, -0.941, 2.511, -5.456, 74.290, 0.000
9.611, -1.138, 2.667, -6.507, 73.209, 0.000
9.689, -0.628, 2.785, -3.562, 73.582, 0.000
9.454, -0.941, 2.628, -5.481, 73.548, 0.000
9.611, -1.020, 2.628, -5.845, 73.652, 0.000
9.571, -0.863, 2.550, -4.979, 74.292, 0.000
9.611, -1.451, 2.354, -8.345, 73.948, 0.000
9.493, -0.981, 2.628, -5.686, 73.537, 0.000
9.493, -1.059, 2.707, -6.124, 72.977, 0.000
9.454, -0.902, 2.511, -5.270, 74.242, 0.000
9.611, -1.020, 3.020, -5.781, 71.648, 0.000
9.532, -1.098, 2.550, -6.352, 73.762, 0.000
8.708, -0.549, 2.432, -3.476, 74.023, 0.000
9.414, -1.491, 4.236, -8.216, 64.497, 0.000
9.493, -0.902, 2.511, -5.250, 74.303, 0.000
9.611, -1.569, 2.667, -8.940, 72.151, 0.000
9.650, -0.981, 2.746, -5.583, 73.188, 0.000
9.454, -0.941, 2.354, -5.520, 74.990, 0.000
9.336, -0.785, 2.354, -4.658, 75.118, 0.000
9.414, -1.059, 2.432, -6.216, 74.264, 0.000
9.493, -0.941, 2.550, -5.471, 74.023, 0.000
9.493, -0.941, 2.432, -5.488, 74.638, 0.000
9.493, -1.020, 2.471, -5.936, 74.271, 0.000
9.454, -1.334, 2.550, -7.757, 73.071, 0.000
9.807, -0.628, 2.942, -3.508, 72.947, 0.000
9.257, -1.608, 1.804, -9.677, 75.367, 0.000
9.611, -0.981, 2.354, -5.660, 75.141, 0.000
9.493, -0.941, 2.550, -5.471, 74.023, 0.000
9.571, -0.824, 2.432, -4.768, 74.982, 0.000
9.571, -1.020, 2.511, -5.885, 74.192, 0.000
9.571, -1.216, 2.667, -6.977, 72.971, 0.000
9.689, -2.040, 3.413, -11.231, 67.689, 0.000
9.218, -1.608, 2.393, -9.585, 72.632, 0.000
9.650, -0.431, 2.471, -2.480, 75.427, 0.000
9.179, -1.334, 2.275, -8.028, 73.970, 0.000
9.532, -0.981, 2.628, -5.664, 73.601, 0.000
9.650, -0.941, 2.667, -5.372, 73.662, 0.000
9.571, -1.020, 2.628, -5.867, 73.588, 0.000
9.532, -0.941, 2.589, -5.445, 73.880, 0.000
9.571, -1.020, 2.589, -5.873, 73.790, 0.000
9.571, -0.902, 2.511, -5.210, 74.426, 0.000
9.571, -0.902, 2.550, -5.204, 74.221, 0.000
9.493, -0.941, 2.471, -5.482, 74.433, 0.000
9.571, -1.020, 2.628, -5.867, 73.588, 0.000
9.493, -0.941, 2.589, -5.465, 73.817, 0.000
9.571, -0.981, 2.589, -5.648, 73.868, 0.000
9.493, -0.941, 2.589, -5.465, 73.817, 0.000
9.532, -0.941, 2.628, -5.439, 73.676, 0.000
9.650, -1.020, 2.550, -5.834, 74.115, 0.000
9.454, -0.941, 2.589, -5.486, 73.754, 0.000
9.611, -0.941, 2.589, -5.403, 74.005, 0.000
9.571, -0.981, 2.589, -5.648, 73.868, 0.000
9.532, -1.020, 2.667, -5.883, 73.322, 0.000
9.532, -0.941, 2.471, -5.461, 74.494, 0.000
9.611, -1.020, 2.550, -5.857, 74.053, 0.000
9.454, -0.902, 2.589, -5.259, 73.827, 0.000
9.571, -0.941, 2.589, -5.424, 73.943, 0.000
9.532, -0.863, 2.589, -4.993, 74.024, 0.000
9.493, -0.981, 2.589, -5.692, 73.741, 0.000
9.571, -0.981, 2.589, -5.648, 73.868, 0.000
9.571, -0.941, 2.667, -5.413, 73.536, 0.000
9.611, -0.941, 2.707, -5.387, 73.396, 0.000
9.571, -0.941, 2.550, -5.429, 74.147, 0.000
9.532, -0.981, 2.511, -5.682, 74.211, 0.000
9.571, -0.941, 2.550, -5.429, 74.147, 0.000
9.571, -0.981, 2.589, -5.648, 73.868, 0.000
9.571, -0.941, 2.589, -5.424, 73.943, 0.000
9.611, -0.941, 2.511, -5.414, 74.412, 0.000
9.571, -0.941, 2.511, -5.435, 74.351, 0.000
9.532, -0.941, 2.628, -5.439, 73.676, 0.000
9.532, -1.020, 2.667, -5.883, 73.322, 0.000
9.532, -1.020, 2.667, -5.883, 73.322, 0.000
9.532, -0.981, 2.628, -5.664, 73.601, 0.000
9.532, -0.941, 2.550, -5.450, 74.085, 0.000
9.414, -0.902, 2.628, -5.274, 73.556, 0.000
9.493, -0.902, 2.628, -5.233, 73.684, 0.000
9.454, -1.020, 2.628, -5.934, 73.395, 0.000
9.611, -0.902, 2.511, -5.190, 74.486, 0.000
9.532, -0.902, 2.707, -5.202, 73.337, 0.000
9.454, -0.941, 2.628, -5.481, 73.548, 0.000
9.454, -0.863, 2.550, -5.037, 74.106, 0.000
9.493, -0.981, 2.628, -5.686, 73.537, 0.000
9.454, -0.981, 2.589, -5.713, 73.677, 0.000
9.493, -0.981, 2.471, -5.709, 74.354, 0.000
9.689, -0.824, 2.550, -4.700, 74.541, 0.000
9.454, -0.981, 2.628, -5.707, 73.473, 0.000
9.375, -0.941, 2.589, -5.529, 73.625, 0.000
9.336, -0.863, 2.707, -5.073, 73.075, 0.000
9.454, -0.981, 2.667, -5.701, 73.268, 0.000
9.532, -1.020, 2.550, -5.901, 73.929, 0.000
9.532, -0.981, 2.471, -5.687, 74.415, 0.000
9.414, -0.902, 2.550, -5.285, 73.971, 0.000
9.532, -1.059, 2.667, -6.107, 73.244, 0.000
9.493, -0.902, 2.511, -5.250, 74.303, 0.000
9.336, 1.451, 3.727, 8.216, 66.811, 0.000
9.728, -0.471, 2.981, -2.649, 72.764, 0.000
9.414, -0.785, 2.707, -4.579, 73.336, 0.000
9.532, -1.020, 2.550, -5.901, 73.929, 0.000
9.571, -0.902, 2.589, -5.199, 74.016, 0.000
9.611, -0.941, 2.511, -5.414, 74.412, 0.000
9.532, -0.981, 2.511, -5.682, 74.211, 0.000
9.611, -0.981, 2.550, -5.633, 74.132, 0.000
9.532, -0.941, 2.550, -5.450, 74.085, 0.000
9.611, -0.941, 2.550, -5.409, 74.208, 0.000
9.571, -0.981, 2.550, -5.654, 74.070, 0.000
9.532, -0.981, 2.471, -5.687, 74.415, 0.000
9.611, -0.981, 2.628, -5.621, 73.728, 0.000
9.454, -1.020, 2.550, -5.947, 73.802, 0.000
9.493, -0.902, 2.707, -5.222, 73.272, 0.000
9.532, -0.941, 2.667, -5.433, 73.472, 0.000
9.611, -0.981, 2.511, -5.638, 74.334, 0.000
9.611, -1.098, 2.471, -6.316, 74.284, 0.000
9.414, -0.745, 2.785, -4.341, 72.973, 0.000
9.767, -1.177, 2.471, -6.662, 74.345, 0.000
9.532, -0.981, 2.550, -5.676, 74.008, 0.000
9.532, -0.667, 2.550, -3.866, 74.545, 0.000
9.571, -1.098, 2.589, -6.321, 73.626, 0.000
7.610, 0.902, 3.570, 6.126, 64.181, 0.000
9.611, -0.981, 2.550, -5.633, 74.132, 0.000
9.571, -1.098, 2.393, -6.352, 74.620, 0.000
9.571, -1.020, 2.589, -5.873, 73.790, 0.000
9.493, -0.941, 2.864, -5.424, 72.383, 0.000
9.532, -0.941, 2.667, -5.433, 73.472, 0.000
9.728, -0.824, 2.393, -4.701, 75.419, 0.000
9.532, -0.981, 2.667, -5.658, 73.398, 0.000
9.689, -0.706, 2.471, -4.039, 75.143, 0.000
9.454, -1.059, 2.628, -6.161, 73.315, 0.000
9.532, -1.020, 2.471, -5.913, 74.333, 0.000
9.454, -0.941, 2.471, -5.503, 74.372, 0.000
9.493, -1.177, 2.550, -6.827, 73.521, 0.000
9.414, -1.059, 2.667, -6.178, 73.046, 0.000
9.650, -1.020, 2.550, -5.834, 74.115, 0.000
9.414, -1.059, 2.511, -6.204, 73.858, 0.000
9.532, -1.020, 2.511, -5.907, 74.131, 0.000
9.571, -0.941, 2.589, -5.424, 73.943, 0.000
9.493, -1.138, 2.707, -6.574, 72.814, 0.000
9.650, -0.863, 2.432, -4.956, 75.028, 0.000
9.375, -1.255, 2.746, -7.322, 72.149, 0.000
7.885, -0.706, 3.648, -4.646, 64.767, 0.000
8.983, -0.275, 3.452, -1.634, 68.919, 0.000
9.414, -0.981, 2.432, -5.759, 74.435, 0.000
9.336, -0.667, 2.354, -3.962, 75.317, 0.000
8.473, -2.079, 2.275, -13.332, 70.012, 0.000
10.630, -0.196, 2.746, -1.023, 75.482, 0.000
9.924, -0.745, 2.667, -4.148, 74.407, 0.000
9.532, -1.098, 2.550, -6.352, 73.762, 0.000
9.611, -0.941, 2.707, -5.387, 73.396, 0.000
9.493, -1.098, 2.589, -6.369, 73.498, 0.000
9.454, -0.902, 2.667, -5.248, 73.413, 0.000
9.454, -1.138, 2.471, -6.640, 73.945, 0.000
9.571, -0.902, 2.628, -5.194, 73.811, 0.000
10.042, -0.941, 3.570, -5.048, 69.815, 0.000
9.532, -1.961, 2.628, -11.220, 71.015, 0.000
9.728, -0.824, 2.667, -4.669, 73.988, 0.000
9.218, -0.471, 2.550, -2.818, 74.290, 0.000
9.650, 1.098, 2.824, 6.234, 72.566, 0.000
8.904, 1.922, 2.785, 11.641, 69.192, 0.000
8.512, 4.825, 2.942, 28.179, 56.421, 0.000
